Time,Accel_x,Accel_y,Accel_z,Gyr_x,Gyr_y,Gyr_z
4:10:32AM,-0.96,0.11,-0.19,1.47,169.54,38.08
4:10:32AM,-0.94,0.17,-0.26,-1.33,174.86,51.94
4:10:32AM,-0.93,0.22,-0.34,-21.91,171.99,61.18
4:10:32AM,-0.93,0.3,-0.41,-45.01,159.11,65.87
4:10:32AM,-0.93,0.38,-0.49,-66.08,140.07,64.05
4:10:32AM,-0.92,0.47,-0.53,-82.6,117.6,49
4:10:32AM,-0.91,0.56,-0.56,-86.87,94.64,23.1
4:10:32AM,-0.9,0.61,-0.59,-85.68,77.28,-6.23
4:10:32AM,-0.83,0.61,-0.56,-80.29,68.32,-29.26
4:10:32AM,-0.76,0.62,-0.56,-72.94,61.6,-49.91
4:10:32AM,-0.69,0.62,-0.54,-73.78,56.77,-70.35
4:10:32AM,-0.61,0.55,-0.48,-75.74,57.4,-88.41
4:10:32AM,-0.59,0.43,-0.47,-72.03,62.16,-89.53
4:10:32AM,-0.65,0.45,-0.49,-73.22,58.87,-83.72
4:10:32AM,-0.65,0.43,-0.51,-74.69,52.78,-74.55
4:10:32AM,-0.63,0.41,-0.53,-70,41.72,-69.65
4:10:32AM,-0.56,0.42,-0.5,-38.57,40.32,-71.82
4:10:32AM,-0.56,0.38,-0.6,-41.79,22.47,-70.21
4:10:32AM,-0.53,0.24,-0.7,-17.71,-5.95,-56.35
4:10:32AM,-0.54,0.18,-0.73,20.51,-27.72,-37.1
4:10:32AM,-0.54,0.23,-0.65,47.67,-30.38,-19.6
4:10:32AM,-0.56,0.34,-0.59,40.46,-10.36,-12.6
4:10:32AM,-0.62,0.29,-0.57,37.24,15.19,-4.55
4:10:32AM,-0.8,0.22,-0.59,61.95,10.92,-13.79
4:10:32AM,-1.26,0.34,-0.49,84.91,-83.16,-72.66
4:10:32AM,-1.48,0.36,-0.24,45.85,-224.91,-143.57
4:10:32AM,-1.09,0.23,-0.09,-19.39,-231.63,-145.39
4:10:32AM,-0.82,-0.02,-0.05,-67.34,-184.03,-96.6
4:10:32AM,-0.63,-0.28,0.33,-30.66,-86.87,-33.46
4:10:32AM,-0.73,-0.06,0.5,-7.28,9.59,-2.8
4:10:32AM,-0.91,0.28,0.13,-20.79,43.33,-1.68
4:10:32AM,-0.95,0.39,-0.36,-16.03,39.9,1.05
4:10:32AM,-0.94,0.43,-0.48,-3.43,19.88,4.27
4:10:32AM,-0.98,0.44,-0.48,14.63,-4.97,3.92
4:10:32AM,-1,0.43,-0.34,27.65,-21.98,4.06
4:10:32AM,-0.96,0.41,-0.19,21.84,-16.52,4.2
4:10:32AM,-0.95,0.41,-0.18,10.92,2.59,-0.56
4:10:32AM,-0.98,0.36,-0.28,2.8,10.01,-7.77
4:10:32AM,-0.98,0.23,-0.36,11.9,7.98,-10.5
4:10:32AM,-0.97,0.2,-0.41,23.94,4.9,-14.07
4:10:32AM,-0.98,0.22,-0.41,30.1,2.52,-19.18
4:10:32AM,-1,0.24,-0.4,34.3,-1.26,-23.38
4:10:32AM,-1.04,0.25,-0.33,36.68,-6.3,-29.68
4:10:32AM,-1.08,0.29,-0.23,37.03,-9.24,-34.65
4:10:32AM,-1.09,0.32,-0.18,32.2,-4.9,-32.97
4:10:32AM,-1.08,0.3,-0.23,28.42,2.59,-27.23
4:10:32AM,-1.07,0.25,-0.33,25.76,10.08,-22.47
4:10:32AM,-1.09,0.19,-0.38,20.72,14.07,-19.74
4:10:32AM,-1.13,0.13,-0.43,15.26,13.37,-20.3
4:10:32AM,-1.19,0.08,-0.47,9.87,9.1,-25.9
4:10:32AM,-1.24,0.01,-0.51,-1.61,1.4,-28.91
4:10:32AM,-1.3,-0.1,-0.52,-11.69,-4.76,-28.42
4:10:32AM,-1.44,-0.13,-0.46,-17.36,-18.13,-27.51
4:10:32AM,-1.57,-0.14,-0.31,-23.73,-26.81,-24.71
4:10:32AM,-1.56,-0.16,-0.14,-14.84,-24.92,-5.74
4:10:32AM,-1.37,0.06,-0.14,18.34,-31.92,4.06
4:10:32AM,-1.21,0.21,-0.1,38.64,-44.45,7.35
4:10:32AM,-1.12,0.31,-0.05,43.05,-51.38,8.47
4:10:32AM,-1.04,0.35,-0.03,33.18,-51.38,9.59
4:10:32AM,-0.97,0.35,-0.04,18.13,-44.1,13.72
4:10:32AM,-0.94,0.32,-0.06,6.86,-39.27,18.41
4:10:32AM,-1,0.31,-0.07,1.12,-35.21,23.1
4:10:32AM,-1.11,0.29,-0.08,-1.89,-36.47,28.91
4:10:32AM,-1.16,0.25,-0.08,-0.42,-43.61,34.93
4:10:32AM,-1.17,0.2,-0.07,5.18,-51.38,42.91
4:10:32AM,-1.15,0.2,-0.04,11.27,-58.73,52.85
4:10:32AM,-1.14,0.26,0.01,10.01,-66.64,62.44
4:10:32AM,-1.15,0.29,0.09,10.08,-74.97,74.62
4:10:32AM,-1.14,0.31,0.12,9.59,-79.66,98
4:10:32AM,-1.11,0.33,0.09,7.28,-80.43,120.19
4:10:32AM,-1.08,0.36,0.05,7.35,-77.28,135.45
4:10:32AM,-1.03,0.35,0.01,5.6,-65.52,142.45
4:10:32AM,-1.01,0.37,-0.02,9.52,-46.62,135.03
4:10:32AM,-1.04,0.33,-0.08,19.6,-26.67,118.86
4:10:32AM,-1.1,0.28,-0.16,27.86,-13.16,100.94
4:10:32AM,-1.14,0.24,-0.24,19.81,-12.74,92.05
4:10:32AM,-1.17,0.21,-0.32,2.24,-26.32,84.07
4:10:32AM,-1.17,0.13,-0.32,-14.56,-43.33,79.17
4:10:32AM,-1.22,0.08,-0.34,-20.65,-69.44,76.65
4:10:32AM,-1.34,0.1,-0.28,-27.09,-117.53,84.56
4:10:32AM,-1.31,0.15,-0.19,-39.06,-162.82,99.33
4:10:32AM,-1.21,0.15,-0.12,-33.81,-193.41,103.6
4:10:32AM,-1.14,0.16,-0.04,-19.04,-205.59,111.72
4:10:32AM,-0.9,0.3,0.18,-22.82,-188.58,116.62
4:10:32AM,-0.8,0.49,0.48,-68.32,-126.91,128.24
4:10:32AM,-0.81,0.54,0.38,-94.92,-70.7,139.44
4:10:32AM,-0.94,0.6,0.14,-77.07,-48.72,141.89
4:10:32AM,-1.02,0.64,-0.07,-63.7,-48.44,136.78
4:10:32AM,-1.05,0.61,-0.2,-66.78,-61.67,131.18
4:10:32AM,-1.04,0.48,-0.18,-69.02,-78.47,124.6
4:10:32AM,-1,0.24,0.03,-51.66,-84.28,117.04
4:10:32AM,-0.93,0.1,0.18,-32.27,-73.15,111.86
4:10:32AM,-0.86,0.01,0.16,-23.59,-56.07,109.76
4:10:32AM,-0.84,-0.04,0.07,-12.67,-45.01,107.38
4:10:32AM,-0.8,-0.01,0.01,-5.04,-40.88,106.82
4:10:32AM,-0.73,0.08,-0.02,1.61,-34.93,102.83
4:10:32AM,-0.68,0.16,-0.06,8.68,-25.2,93.17
4:10:32AM,-0.69,0.18,-0.13,14.7,-19.46,85.19
4:10:32AM,-0.66,0.22,-0.14,17.43,-16.24,74.69
4:10:32AM,-0.57,0.22,-0.09,14.7,-8.96,64.47
4:10:32AM,-0.47,0.17,-0.03,16.66,2.94,53.13
4:10:32AM,-0.41,0.09,0,24.99,11.69,41.23
4:10:32AM,-0.33,0.06,0.04,33.67,20.16,30.17
4:10:32AM,-0.25,0.06,0.08,36.96,31.22,21.84
4:10:32AM,-0.25,0.13,0.1,40.04,41.37,7.91
4:10:32AM,-0.24,0.18,0.07,45.43,53.62,-8.75
4:10:32AM,-0.24,0.21,0.03,54.18,58.73,-19.74
4:10:32AM,-0.24,0.3,0.01,61.81,64.4,-32.55
4:10:32AM,-0.3,0.37,0,61.6,65.52,-47.11
4:10:32AM,-0.32,0.4,-0.01,52.15,64.68,-61.46
4:10:32AM,-0.3,0.35,0.01,42.42,67.13,-70
4:10:32AM,-0.37,0.26,0.03,39.83,71.82,-83.58
4:10:32AM,-0.45,0.17,0,46.97,73.22,-91.84
4:10:32AM,-0.51,0.12,-0.06,60.34,79.24,-97.58
4:10:32AM,-0.58,0.09,-0.05,81.97,81.55,-104.44
4:10:32AM,-0.56,0.21,-0.1,86.38,100.94,-100.24
4:10:32AM,-0.66,0.54,-0.34,52.85,134.68,-95.13
4:10:32AM,-0.88,0.68,-0.59,40.6,109.97,-48.44
4:10:32AM,-1.46,0.59,-0.54,135.24,32.2,93.94
4:10:32AM,-2.09,1.18,-0.16,237.93,48.3,258.79
4:10:32AM,-2.82,2.46,-0.27,211.12,-35.07,258.72
4:10:32AM,-1.95,3.11,0.44,87.29,-99.61,86.73
4:10:32AM,-0.72,2.72,1,-19.67,-9.59,-100.45
4:10:32AM,-0.53,0.91,0.28,-105,50.54,-134.12
4:10:32AM,-0.76,0.06,-0.19,-54.39,47.46,-116.9
4:10:32AM,-0.83,-0.05,-0.22,-14.77,32.48,-114.38
4:10:32AM,-0.81,-0.05,-0.11,-0.84,35,-130.27
4:10:32AM,-0.73,-0.08,-0.1,6.72,47.95,-154.63
4:10:32AM,-0.65,-0.14,-0.08,21.21,65.87,-166.32
4:10:32AM,-0.61,-0.22,-0.12,43.19,90.37,-152.32
4:10:32AM,-0.67,-0.25,-0.17,62.16,103.46,-117.04
4:10:32AM,-0.77,-0.25,-0.24,82.6,103.25,-65.38
4:10:32AM,-0.85,-0.09,-0.28,89.32,98.07,-20.37
4:10:32AM,-0.93,0.11,-0.3,83.16,97.3,5.67
4:10:32AM,-0.99,0.28,-0.34,65.52,93.8,18.9
4:10:32AM,-1.06,0.43,-0.37,38.29,88.2,28.91
4:10:32AM,-1.11,0.56,-0.41,19.04,85.26,41.09
4:10:32AM,-1.16,0.72,-0.44,-0.42,79.31,53.34
4:10:32AM,-1.16,0.8,-0.44,-13.93,65.45,53.9
4:10:32AM,-1.05,0.71,-0.42,17.85,52.92,60.13
4:10:32AM,-0.92,0.7,-0.39,71.4,35.49,64.26
4:10:32AM,-0.81,0.75,-0.35,96.6,16.94,47.04
4:10:32AM,-0.72,0.79,-0.29,87.29,3.36,18.41
4:10:32AM,-0.66,0.77,-0.23,56.49,-5.39,-16.45
4:10:32AM,-0.62,0.69,-0.14,17.5,-2.59,-47.81
4:10:32AM,-0.61,0.58,-0.08,-17.22,16.38,-62.02
4:10:32AM,-0.65,0.53,-0.07,-43.68,40.39,-65.94
4:10:32AM,-0.71,0.5,-0.08,-67.2,59.5,-67.9
4:10:32AM,-0.75,0.45,-0.11,-77.35,68.11,-68.6
4:10:32AM,-0.76,0.41,-0.19,-82.04,65.03,-62.23
4:10:32AM,-0.72,0.37,-0.37,-85.26,59.64,-53.27
4:10:32AM,-0.71,0.39,-0.32,-91.56,51.73,-45.36
4:10:32AM,-0.74,0.46,-0.36,-97.72,41.58,-47.6
4:10:32AM,-0.73,0.53,-0.39,-108.29,38.64,-60.13
4:10:32AM,-0.74,0.47,-0.47,-106.4,39.55,-57.61
4:10:32AM,-0.72,0.31,-0.67,-69.37,28.21,-41.86
4:10:32AM,-0.66,0.27,-0.74,-13.16,-1.12,-20.09
4:10:32AM,-0.55,0.35,-0.73,23.38,-19.11,-1.05
4:10:32AM,-0.5,0.44,-0.72,38.64,-28,8.26
4:10:32AM,-0.49,0.48,-0.65,40.6,-19.11,10.64
4:10:32AM,-0.51,0.5,-0.58,40.95,7.77,2.94
4:10:32AM,-0.57,0.51,-0.52,39.06,41.72,-12.53
4:10:32AM,-0.74,0.52,-0.44,21.21,55.3,-32.55
4:10:32AM,-1.81,0.73,-0.03,-103.04,-131.04,-122.22
4:10:32AM,-1.34,0.25,0.48,-128.73,-180.67,-146.79
4:10:32AM,-0.78,-0.2,0.56,-72.94,-45.71,-47.18
4:10:32AM,-0.58,0.03,0.04,-87.64,53.97,-4.76
4:10:32AM,-0.63,0.19,-0.35,-49.63,73.71,-11.48
4:10:32AM,-0.8,0.33,-0.49,-3.29,48.86,-10.08
4:10:32AM,-1,0.49,-0.45,13.86,17.36,-11.83
4:10:32AM,-1.02,0.56,-0.27,11.83,-2.73,-14.84
4:10:32AM,-0.92,0.53,-0.14,3.01,-2.31,-16.66
4:10:32AM,-0.87,0.49,-0.14,-5.18,6.79,-17.5
4:10:32AM,-0.87,0.46,-0.24,-6.86,7.77,-15.47
4:10:32AM,-0.86,0.45,-0.35,6.79,-2.94,-12.6
4:10:32AM,-0.83,0.48,-0.28,14.42,-4.13,-13.51
4:10:32AM,-0.82,0.52,-0.22,15.47,3.71,-17.5
4:10:32AM,-0.87,0.54,-0.21,19.25,6.02,-22.19
4:10:32AM,-0.89,0.6,-0.23,24.43,0.63,-20.16
4:10:32AM,-0.86,0.63,-0.2,23.17,-4.06,-20.37
4:10:32AM,-0.82,0.6,-0.17,21.28,-2.87,-21.98
4:10:32AM,-0.81,0.49,-0.22,25.76,1.4,-22.26
4:10:32AM,-0.82,0.46,-0.32,38.08,2.24,-20.3
4:10:32AM,-0.86,0.46,-0.36,47.74,3.57,-20.37
4:10:32AM,-0.94,0.48,-0.35,50.89,2.52,-22.61
4:10:32AM,-1,0.47,-0.33,47.74,-2.52,-25.55
4:10:32AM,-1.02,0.47,-0.32,33.32,-6.37,-27.93
4:10:32AM,-1.01,0.45,-0.34,19.39,-1.05,-26.04
4:10:32AM,-1.02,0.45,-0.38,9.59,5.32,-22.05
4:10:32AM,-1.08,0.45,-0.36,-3.64,5.88,-22.68
4:10:32AM,-1.16,0.28,-0.33,-11.13,0.49,-24.08
4:10:32AM,-1.25,0.16,-0.34,-9.94,-4.55,-21.56
4:10:32AM,-1.36,0.15,-0.36,-3.36,-5.81,-18.48
4:10:32AM,-1.56,0.21,-0.32,2.24,-14.35,-14.35
4:10:32AM,-1.62,0.29,-0.24,3.36,-22.54,-8.75
4:10:32AM,-1.52,0.39,-0.25,10.5,-34.58,-6.02
4:10:32AM,-1.3,0.49,-0.29,21.49,-46.27,-5.25
4:10:32AM,-1.17,0.58,-0.25,20.79,-48.72,-6.58
4:10:32AM,-1.09,0.58,-0.18,11.76,-45.57,-10.57
4:10:32AM,-1.05,0.53,-0.09,3.08,-42.07,-11.55
4:10:32AM,-1.03,0.5,-0.04,-7.63,-40.53,-9.52
4:10:32AM,-1.02,0.47,-0.03,-15.33,-43.26,-3.22
4:10:32AM,-0.97,0.47,-0.04,-16.45,-48.09,5.88
4:10:32AM,-0.9,0.49,-0.05,-14.77,-50.26,13.72
4:10:32AM,-0.86,0.51,-0.05,-14.21,-49.7,22.96
4:10:32AM,-0.89,0.54,-0.05,-14,-45.15,31.36
4:10:32AM,-0.97,0.59,-0.06,-14.63,-43.33,40.6
4:10:32AM,-1.01,0.62,-0.07,-14.28,-44.94,51.66
4:10:32AM,-1.02,0.67,-0.07,-11.2,-49,62.16
4:10:32AM,-1.01,0.72,-0.05,-10.22,-54.67,70.56
4:10:32AM,-1,0.74,-0.02,-10.64,-59.92,76.72
4:10:32AM,-1,0.7,-0.01,-5.18,-66.29,83.51
4:10:32AM,-1.01,0.64,-0.04,3.99,-70.63,91.98
4:10:32AM,-1.01,0.59,-0.07,12.67,-72.59,93.03
4:10:32AM,-1.05,0.39,-0.1,9.31,-76.09,89.95
4:10:32AM,-1.05,0.41,-0.11,-3.71,-72.73,86.24
4:10:32AM,-1.1,0.32,-0.16,-14.77,-68.04,80.36
4:10:32AM,-1.14,0.26,-0.19,-19.53,-70,73.08
4:10:32AM,-1.15,0.22,-0.21,-22.89,-73.85,63.07
4:10:32AM,-1.17,0.16,-0.24,-21.28,-85.47,53.2
4:10:32AM,-1.15,0.1,-0.22,-15.47,-104.16,56.07
4:10:32AM,-1.12,0.05,-0.18,-6.3,-125.02,62.86
4:10:32AM,-1.09,0.1,-0.04,-10.08,-139.09,74.06
4:10:32AM,-1.04,0.18,0.19,-31.22,-136.36,81.34
4:10:32AM,-0.98,0.23,0.26,-45.57,-121.59,80.99
4:10:32AM,-0.9,0.26,0.25,-43.54,-104.93,78.19
4:10:32AM,-0.79,0.29,0.16,-56.21,-82.74,76.23
4:10:32AM,-0.71,0.32,0.03,-49.14,-62.72,74.2
4:10:32AM,-0.75,0.44,-0.06,-37.59,-59.08,73.36
4:10:32AM,-0.77,0.52,-0.05,-28.28,-57.05,86.66
4:10:32AM,-0.79,0.72,-0.02,-32.69,-53.48,111.79
4:10:32AM,-0.87,0.96,-0.01,-59.85,-53.69,134.33
4:10:32AM,-0.95,1.07,-0.01,-65.94,-59.36,145.74
4:10:32AM,-0.99,1.06,0.07,-61.04,-68.88,116.55
4:10:32AM,-0.92,0.51,0.15,-72.03,-64.96,109.97
4:10:32AM,-0.86,0.25,0.15,-48.65,-53.13,107.24
4:10:32AM,-0.8,0.19,0.11,-28.77,-45.78,106.33
4:10:32AM,-0.76,0.19,0.11,-22.82,-42.14,105.98
4:10:32AM,-0.75,0.23,0.1,-27.65,-42.35,102.69
4:10:32AM,-0.71,0.23,0.09,-25.62,-42.84,98.7
4:10:32AM,-0.67,0.26,0.08,-17.85,-40.32,95.13
4:10:32AM,-0.64,0.33,0.1,-12.53,-34.86,88.34
4:10:32AM,-0.64,0.35,0.12,-10.22,-32.13,80.36
4:10:32AM,-0.62,0.31,0.13,-8.89,-29.12,72.8
4:10:32AM,-0.58,0.27,0.13,-5.81,-25.55,65.94
4:10:32AM,-0.52,0.24,0.14,-0.21,-21.07,58.8
4:10:32AM,-0.47,0.23,0.15,7.35,-15.89,51.94
4:10:32AM,-0.42,0.23,0.15,15.12,-8.61,42.7
4:10:32AM,-0.37,0.2,0.13,25.48,-0.07,33.39
4:10:32AM,-0.34,0.18,0.09,37.1,9.24,24.5
4:10:32AM,-0.31,0.26,0.08,43.68,15.68,20.16
4:10:32AM,-0.31,0.36,0.08,45.5,22.19,11.83
4:10:32AM,-0.34,0.43,0.06,44.38,29.89,-1.75
4:10:32AM,-0.31,0.42,0.06,45.08,36.47,-6.79
4:10:32AM,-0.32,0.44,0,50.89,44.73,-18.97
4:10:32AM,-0.33,0.46,-0.01,51.87,48.51,-27.3
4:10:32AM,-0.38,0.46,-0.02,52.43,52.15,-37.24
4:10:32AM,-0.38,0.47,-0.03,55.09,56.07,-46.2
4:10:32AM,-0.41,0.5,-0.03,59.08,58.8,-56.63
4:10:32AM,-0.44,0.53,-0.05,59.01,61.74,-68.18
4:10:32AM,-0.45,0.51,-0.08,57.54,61.46,-80.57
4:10:32AM,-0.5,0.49,-0.05,59.99,61.32,-92.61
4:10:32AM,-0.5,0.48,-0.01,69.86,58.03,-92.12
4:10:32AM,-0.47,0.77,0.15,71.54,12.74,-73.43
4:10:32AM,-0.5,1.23,0.69,36.82,-34.72,-47.67
4:10:32AM,-0.92,1.36,1.01,20.44,32.55,11.06
4:10:32AM,-2.14,1.81,0.25,58.52,93.52,58.31
4:10:32AM,-2.77,2.52,-0.13,24.99,8.26,30.73
4:10:32AM,-1.77,2.44,0.47,-56.49,-47.46,-44.24
4:10:32AM,-0.68,0.83,0.29,-78.19,-18.34,-60.48
4:10:32AM,-0.41,0.17,0.03,-7.84,18.41,-68.25
4:10:32AM,-0.41,-0.08,0.04,40.67,35.28,-70.49
4:10:32AM,-0.5,-0.15,0.04,59.64,28.35,-74.55
4:10:32AM,-0.56,-0.11,-0.04,65.31,17.85,-82.67
4:10:32AM,-0.58,-0.06,-0.12,74.9,51.24,-86.66
4:10:32AM,-0.64,-0.03,-0.16,92.12,47.04,-83.86
4:10:32AM,-0.75,0.08,-0.08,100.59,51.73,-82.32
4:10:32AM,-0.81,0.35,-0.12,82.6,62.65,-75.18
4:10:32AM,-0.95,0.59,-0.21,56.42,69.79,-52.78
4:10:32AM,-1.22,0.97,-0.36,59.08,79.94,5.32
4:10:32AM,-1.51,1.17,-0.58,102.55,57.12,41.3
4:10:32AM,-1.44,1.49,-0.59,147.84,-4.27,16.03
4:10:32AM,-0.95,1.43,-0.24,160.23,-60.76,-31.78
4:10:32AM,-0.62,1.28,0.3,142.87,-38.36,-65.38
4:10:32AM,-0.55,0.94,0.47,102.13,13.72,-64.33
4:10:32AM,-0.73,0.63,0.16,40.32,56.35,-61.25
4:10:32AM,-0.89,0.44,-0.14,11.83,79.52,-70.63
4:10:32AM,-0.95,0.39,-0.25,-11.41,89.95,-78.12
4:10:32AM,-0.93,0.3,-0.28,-11.48,93.17,-77.28
4:10:32AM,-0.87,0.2,-0.28,13.16,96.81,-71.05
4:10:32AM,-0.84,0.2,-0.28,40.18,98.35,-63.49
4:10:32AM,-0.85,0.25,-0.28,47.88,96.11,-49.49
4:10:32AM,-0.89,0.33,-0.29,34.93,89.74,-38.08
4:10:32AM,-0.93,0.37,-0.3,13.86,79.8,-24.57
4:10:32AM,-0.96,0.42,-0.3,0.07,67.83,-14.56
4:10:32AM,-0.95,0.48,-0.27,-6.72,62.09,-10.29
4:10:32AM,-0.92,0.53,-0.25,-14.77,59.08,-8.33
4:10:32AM,-0.88,0.58,-0.25,-17.22,55.02,-9.73
4:10:32AM,-0.84,0.75,-0.26,-16.45,47.11,-17.36
4:10:32AM,-0.8,0.66,-0.28,-15.26,35.35,-29.4
4:10:32AM,-0.77,0.68,-0.24,-13.93,20.86,-48.86
4:10:32AM,-0.73,0.64,-0.17,-19.25,12.53,-64.26
4:10:32AM,-0.69,0.56,-0.12,-27.58,17.57,-68.04
4:10:32AM,-0.68,0.47,-0.14,-29.82,28.07,-59.43
4:10:32AM,-0.69,0.44,-0.19,-31.92,34.58,-49.63
4:10:32AM,-0.72,0.48,-0.23,-53.41,36.61,-45.36
4:10:32AM,-0.73,0.45,-0.27,-73.5,35.63,-46.34
4:10:32AM,-0.72,0.43,-0.29,-86.94,35,-51.52
4:10:32AM,-0.67,0.45,-0.33,-100.87,40.18,-59.15
4:10:32AM,-0.63,0.4,-0.51,-102.76,41.79,-56.14
4:10:32AM,-0.65,0.31,-0.74,-67.76,18.97,-39.76
4:10:32AM,-0.6,0.3,-0.79,-25.97,-18.76,-17.43
4:10:32AM,-0.55,0.36,-0.72,5.46,-24.78,-2.66
4:10:32AM,-0.54,0.52,-0.63,17.43,-5.81,-7.35
4:10:32AM,-0.52,0.56,-0.54,18.69,34.93,-15.89
4:10:32AM,-0.51,0.57,-0.47,12.32,78.82,-20.51
4:10:32AM,-0.78,0.45,-0.48,41.37,49.91,-35.28
4:10:32AM,-1.34,0.66,-0.07,46.13,-114.45,-72.87
4:10:32AM,-0.96,0.41,0.71,7.42,-98.56,-58.24
4:10:32AM,-0.66,0.43,0.63,-70.56,11.06,-27.09
4:10:32AM,-0.63,0.39,0.08,-89.32,67.2,-26.25
4:10:32AM,-0.72,0.33,-0.35,-66.22,72.59,-25.13
4:10:32AM,-0.86,0.34,-0.57,-36.19,40.53,-6.93
4:10:32AM,-0.97,0.41,-0.45,-10.71,7.63,-5.88
4:10:32AM,-1,0.42,-0.18,-7.07,2.8,-11.41
4:10:32AM,-0.9,0.35,-0.1,-11.83,13.58,-9.31
4:10:32AM,-0.86,0.34,-0.21,-11.2,18.48,-5.39
4:10:32AM,-0.93,0.33,-0.32,9.52,4.13,-7
4:10:32AM,-0.91,0.37,-0.3,28.28,-5.46,-8.96
4:10:32AM,-0.87,0.44,-0.23,25.2,-2.45,-11.34
4:10:32AM,-0.83,0.49,-0.21,19.46,2.1,-11.76
4:10:32AM,-0.8,0.57,-0.23,17.43,4.62,-11.34
4:10:32AM,-0.77,0.62,-0.23,17.08,7.14,-11.69
4:10:32AM,-0.82,0.65,-0.25,17.5,9.24,-13.09
4:10:32AM,-0.89,0.62,-0.3,20.44,4.69,-14.56
4:10:32AM,-0.89,0.61,-0.31,19.25,0,-15.54
4:10:32AM,-0.85,0.55,-0.35,20.02,-3.57,-14.14
4:10:32AM,-0.79,0.52,-0.34,23.8,-5.95,-13.44
4:10:32AM,-0.78,0.49,-0.29,23.38,-4.13,-16.38
4:10:32AM,-0.79,0.43,-0.27,20.51,0.35,-18.9
4:10:32AM,-0.88,0.41,-0.3,22.33,2.73,-22.54
4:10:32AM,-0.98,0.42,-0.31,24.71,1.19,-26.95
4:10:32AM,-1.03,0.45,-0.31,25.48,-1.82,-26.11
4:10:32AM,-1.02,0.49,-0.32,20.3,-5.32,-24.15
4:10:32AM,-0.98,0.5,-0.33,13.16,-4.69,-22.89
4:10:32AM,-0.97,0.47,-0.37,4.2,-3.78,-23.24
4:10:32AM,-0.94,0.37,-0.39,0.49,-3.08,-21.7
4:10:32AM,-0.93,0.27,-0.41,4.76,1.54,-14.49
4:10:32AM,-1.06,0.3,-0.43,13.02,7,-9.38
4:10:32AM,-1.25,0.34,-0.43,18.48,2.38,-8.68
4:10:32AM,-1.41,0.38,-0.38,17.85,-7.21,-6.23
4:10:32AM,-1.44,0.39,-0.28,15.26,-16.66,-5.18
4:10:32AM,-1.34,0.41,-0.29,21.7,-23.24,-4.27
4:10:32AM,-1.23,0.47,-0.31,29.54,-29.12,-6.44
4:10:32AM,-1.16,0.52,-0.33,26.67,-27.86,-10.71
4:10:32AM,-1.09,0.53,-0.34,18.76,-22.96,-13.65
4:10:32AM,-1.07,0.52,-0.3,7.35,-25.13,-16.24
4:10:32AM,-1.04,0.5,-0.17,-4.76,-30.38,-15.4
4:10:32AM,-1.04,0.51,-0.06,-16.66,-28.98,-11.06
4:10:32AM,-1.05,0.54,-0.03,-21.07,-28.49,-4.97
4:10:32AM,-1.04,0.56,-0.04,-20.93,-32.2,2.17
4:10:32AM,-0.98,0.56,-0.04,-19.32,-38.64,8.47
4:10:32AM,-0.9,0.54,-0.01,-18.34,-42.28,15.75
4:10:32AM,-0.86,0.57,0.02,-18.34,-39.69,22.47
4:10:32AM,-0.9,0.61,-0.01,-19.39,-37.17,28.14
4:10:32AM,-0.94,0.64,-0.03,-18.76,-37.1,35.91
4:10:32AM,-0.99,0.7,-0.04,-18.13,-39.97,45.08
4:10:32AM,-1,0.72,-0.05,-19.32,-47.88,54.25
4:10:32AM,-0.96,0.73,-0.06,-18.69,-57.19,64.47
4:10:32AM,-0.91,0.71,-0.08,-15.12,-65.17,72.31
4:10:32AM,-0.87,0.7,-0.15,-13.93,-71.47,79.38
4:10:32AM,-0.82,0.66,-0.18,-13.65,-75.88,82.32
4:10:32AM,-0.8,0.63,-0.18,-22.61,-72.8,85.54
4:10:32AM,-0.83,0.61,-0.17,-41.16,-64.89,91.7
4:10:32AM,-0.89,0.6,-0.16,-58.73,-56.14,98.14
4:10:32AM,-0.98,0.59,-0.17,-67.69,-51.59,98.84
4:10:32AM,-1.09,0.58,-0.17,-63.14,-54.67,98.07
4:10:32AM,-1.19,0.55,-0.13,-49.56,-58.17,94.22
4:10:32AM,-1.26,0.52,-0.13,-38.57,-63.21,89.53
4:10:32AM,-1.28,0.47,-0.14,-33.18,-75.6,91.98
4:10:32AM,-1.25,0.43,-0.16,-27.65,-87.64,98.49
4:10:32AM,-1.19,0.38,-0.16,-19.18,-95.13,101.57
4:10:32AM,-1.08,0.4,-0.06,-28.35,-94.85,105.63
4:10:32AM,-1,0.39,0.04,-55.37,-87.71,111.51
4:10:32AM,-0.9,0.4,0.06,-73.99,-69.93,106.4
4:10:32AM,-0.85,0.41,0.02,-86.1,-61.04,102.76
4:10:32AM,-0.8,0.44,-0.02,-89.53,-56.98,105.35
4:10:32AM,-0.74,0.54,-0.01,-84.35,-52.99,119.28
4:10:32AM,-0.7,0.76,0.01,-83.09,-45.36,133.42
4:10:32AM,-0.71,0.94,-0.02,-82.74,-43.47,138.18
4:10:32AM,-0.72,0.97,-0.04,-73.29,-41.58,138.46
4:10:32AM,-0.75,0.92,-0.02,-88.41,-42.21,131.74
4:10:32AM,-0.78,0.69,0.02,-95.97,-40.95,117.04
4:10:32AM,-0.76,0.44,0.06,-79.38,-36.96,109.76
4:10:32AM,-0.73,0.36,0.09,-68.18,-32.34,107.17
4:10:32AM,-0.71,0.28,0.09,-62.3,-25.76,106.61
4:10:32AM,-0.74,0.23,0.07,-55.16,-22.75,105.35
4:10:32AM,-0.74,0.2,0.04,-46.62,-22.33,104.58
4:10:32AM,-0.69,0.22,0.04,-37.73,-20.37,100.59
4:10:32AM,-0.63,0.25,0.06,-32.9,-17.43,95.55
4:10:32AM,-0.58,0.27,0.06,-28.98,-14.91,90.58
4:10:32AM,-0.56,0.3,0.05,-23.87,-14.77,83.58
4:10:32AM,-0.56,0.32,0.03,-17.15,-14.56,77.07
4:10:32AM,-0.55,0.37,0.04,-14.77,-13.79,71.82
4:10:32AM,-0.52,0.39,0.08,-10.15,-10.71,62.16
4:10:32AM,-0.48,0.39,0.11,-4.48,-4.62,52.29
4:10:32AM,-0.42,0.36,0.12,0.35,-0.21,42.98
4:10:32AM,-0.36,0.38,0.14,0.7,5.88,33.74
4:10:32AM,-0.33,0.37,0.15,2.38,12.04,22.96
4:10:32AM,-0.28,0.35,0.15,7.42,21.14,12.95
4:10:32AM,-0.25,0.35,0.13,13.58,28.77,3.5
4:10:32AM,-0.24,0.37,0.13,16.59,35.7,-5.74
4:10:32AM,-0.23,0.42,0.12,14.28,44.1,-17.36
4:10:32AM,-0.25,0.45,0.11,9.52,50.96,-22.82
4:10:32AM,-0.29,0.47,0.07,14.56,58.59,-32.9
4:10:32AM,-0.35,0.45,0.02,20.44,63.7,-37.87
4:10:32AM,-0.42,0.44,-0.05,32.27,63.28,-46.27
4:10:32AM,-0.44,0.4,-0.07,45.22,65.45,-53.34
4:10:32AM,-0.48,0.43,-0.11,59.71,64.47,-64.68
4:10:32AM,-0.48,0.46,-0.13,62.65,63.42,-77.77
4:10:32AM,-0.48,0.46,-0.15,67.76,62.37,-90.79
4:10:32AM,-0.51,0.43,-0.1,80.29,54.18,-102.27
4:10:32AM,-0.53,0.51,0.06,90.86,35.28,-100.66
4:10:32AM,-0.5,0.85,0.38,65.59,14.21,-89.04
4:10:32AM,-0.61,1.09,0.5,43.89,6.72,-44.52
4:10:32AM,-1.09,1.56,0.37,96.67,38.57,63.49
4:10:32AM,-2,2.83,0.06,110.32,85.47,99.54
4:10:32AM,-2.37,3.54,0.3,19.67,1.61,28.35
4:10:32AM,-1.05,2.24,0.61,-93.45,-5.46,-77.7
4:10:32AM,-0.55,0.55,0.31,-94.64,30.66,-82.95
4:10:32AM,-0.46,0.25,-0.09,-28.21,51.66,-83.44
4:10:32AM,-0.53,0.01,-0.22,10.99,50.75,-90.58
4:10:32AM,-0.58,-0.15,-0.15,54.74,31.57,-104.93
4:10:32AM,-0.55,-0.17,-0.12,71.47,32.13,-112
4:10:32AM,-0.54,-0.22,-0.08,84.28,41.86,-102.83
4:10:32AM,-0.58,-0.16,0,95.76,52.99,-87.92
4:10:32AM,-0.74,0.17,-0.02,99.12,61.53,-82.95
4:10:32AM,-0.84,0.5,-0.1,73.99,75.18,-77
4:10:32AM,-1.02,0.71,-0.29,62.3,70.42,-51.24
4:10:32AM,-1.25,0.9,-0.38,74.55,59.5,-10.22
4:10:32AM,-1.39,1.22,-0.45,110.88,30.59,4.9
4:10:32AM,-1.14,1.45,-0.38,124.53,-21.91,-28.56
4:10:32AM,-0.8,1.34,0.03,113.47,-45.64,-66.43
4:10:32AM,-0.6,0.92,0.29,106.47,-23.52,-75.67
4:10:32AM,-0.61,0.78,0.23,84.14,19.67,-70.49
4:10:32AM,-0.73,0.62,0.01,45.15,54.39,-66.64
4:10:32AM,-0.85,0.51,-0.16,13.51,66.99,-68.32
4:10:32AM,-0.88,0.41,-0.2,-5.32,63.7,-72.1
4:10:32AM,-0.84,0.35,-0.17,-7.28,60.48,-72.38
4:10:32AM,-0.79,0.31,-0.15,8.4,58.94,-72.66
4:10:32AM,-0.77,0.28,-0.14,24.5,57.54,-68.39
4:10:32AM,-0.77,0.28,-0.14,32.2,57.61,-56.14
4:10:32AM,-0.77,0.32,-0.14,30.31,58.1,-44.1
4:10:32AM,-0.79,0.37,-0.15,22.26,58.17,-37.94
4:10:32AM,-0.82,0.42,-0.16,6.93,53.83,-38.08
4:10:32AM,-0.87,0.45,-0.16,-12.04,47.18,-39.76
4:10:32AM,-0.91,0.44,-0.17,-23.24,47.32,-37.94
4:10:32AM,-0.93,0.44,-0.22,-14.49,52.08,-28.07
4:10:32AM,-0.95,0.49,-0.28,-1.26,52.36,-19.95
4:10:32AM,-0.94,0.61,-0.33,-1.89,43.4,-22.75
4:10:32AM,-0.88,0.68,-0.34,-17.64,31.64,-36.4
4:10:32AM,-0.81,0.68,-0.31,-51.94,27.02,-50.19
4:10:32AM,-0.73,0.64,-0.26,-47.67,31.57,-56.7
4:10:32AM,-0.68,0.6,-0.26,-52.08,40.81,-54.46
4:10:32AM,-0.65,0.57,-0.27,-52.78,46.69,-49.42
4:10:32AM,-0.62,0.56,-0.32,-56.77,48.37,-42.63
4:10:32AM,-0.63,0.58,-0.37,-58.17,43.33,-39.97
4:10:32AM,-0.64,0.58,-0.39,-58.52,35.7,-37.1
4:10:32AM,-0.63,0.57,-0.45,-45.64,28.07,-32.13
4:10:32AM,-0.6,0.48,-0.57,-2.52,7.07,-23.66
4:10:32AM,-0.54,0.4,-0.65,36.47,-17.36,-4.62
4:10:32AM,-0.55,0.43,-0.64,58.1,-36.05,14.35
4:10:32AM,-0.6,0.46,-0.59,74.69,-42.84,19.81
4:10:32AM,-0.6,0.47,-0.5,88.62,-28,12.46
4:10:32AM,-0.62,0.46,-0.42,95.06,6.37,-15.54
4:10:32AM,-0.69,0.45,-0.36,92.54,47.39,-19.39
4:10:32AM,-1.12,0.9,-0.13,-9.87,21.21,-88.34
4:10:32AM,-1.53,0.14,0.82,-123.76,-45.71,-128.59
4:10:32AM,-1.03,-0.06,0.54,-105.77,23.31,-71.05
4:10:32AM,-0.76,0.17,-0.05,-115.22,61.53,-31.78
4:10:32AM,-0.67,0.35,-0.43,-69.37,70,-39.06
4:10:32AM,-0.77,0.36,-0.61,-18.27,44.8,-35.28
4:10:32AM,-0.87,0.4,-0.53,-2.52,17.78,-22.33
4:10:32AM,-0.92,0.44,-0.37,10.5,5.39,-17.5
4:10:32AM,-0.93,0.46,-0.2,16.1,1.75,-14.84
4:10:32AM,-0.84,0.54,-0.18,6.58,3.71,-12.32
4:10:32AM,-0.81,0.55,-0.23,3.57,6.58,-15.68
4:10:32AM,-0.79,0.52,-0.28,1.05,8.19,-6.3
4:10:32AM,-0.8,0.56,-0.28,1.12,7.98,-8.05
4:10:32AM,-0.81,0.5,-0.26,5.67,7.07,-12.74
4:10:32AM,-0.84,0.5,-0.26,14.14,0.91,-12.53
4:10:32AM,-0.83,0.55,-0.26,17.57,-3.71,-10.99
4:10:32AM,-0.81,0.59,-0.25,18.9,-6.23,-11.55
4:10:32AM,-0.78,0.61,-0.25,20.44,-0.63,-11.9
4:10:32AM,-0.78,0.62,-0.28,17.57,6.44,-16.73
4:10:32AM,-0.8,0.57,-0.34,17.99,8.47,-19.6
4:10:32AM,-0.82,0.56,-0.35,24.99,9.8,-21.35
4:10:32AM,-0.86,0.55,-0.37,27.23,7.98,-24.36
4:10:32AM,-0.89,0.52,-0.35,27.65,6.58,-27.93
4:10:32AM,-0.92,0.47,-0.31,30.38,6.09,-30.24
4:10:32AM,-0.96,0.43,-0.25,34.02,5.88,-32.34
4:10:32AM,-1.02,0.41,-0.26,35.7,5.53,-34.58
4:10:32AM,-1.03,0.41,-0.33,36.61,3.22,-33.74
4:10:32AM,-1.02,0.45,-0.41,31.78,2.8,-32.13
4:10:32AM,-1.03,0.48,-0.46,24.92,3.71,-34.44
4:10:32AM,-1.06,0.47,-0.43,12.11,4.27,-37.1
4:10:32AM,-1.09,0.45,-0.36,-5.04,1.89,-35.35
4:10:32AM,-1.12,0.43,-0.27,-29.26,3.43,-28.28
4:10:32AM,-1.2,0.39,-0.22,-33.81,8.05,-16.87
4:10:32AM,-1.35,0.42,-0.2,-25.76,5.25,-7.7
4:10:32AM,-1.44,0.44,-0.2,-13.72,-5.67,-1.19
4:10:32AM,-1.39,0.43,-0.18,-2.38,-16.52,5.25
4:10:32AM,-1.29,0.48,-0.15,3.01,-23.45,6.79
4:10:32AM,-1.22,0.49,-0.15,1.89,-34.58,10.29
4:10:32AM,-1.14,0.47,-0.12,3.15,-50.82,13.72
4:10:32AM,-1.01,0.48,-0.07,1.54,-60.48,18.34
4:10:32AM,-0.77,0.49,-0.05,-0.77,-59.78,23.03
4:10:32AM,-0.83,0.53,-0.06,-4.2,-58.38,29.96
4:10:32AM,-0.85,0.54,-0.07,-6.37,-56.91,39.2
4:10:32AM,-0.93,0.55,-0.09,-5.74,-56.21,47.53
4:10:32AM,-1,0.51,-0.11,-2.59,-57.47,54.39
4:10:32AM,-1.02,0.48,-0.13,-0.98,-60.69,61.11
4:10:32AM,-1.01,0.45,-0.14,3.36,-64.68,66.78
4:10:32AM,-0.95,0.45,-0.09,9.87,-68.32,77.77
4:10:32AM,-0.94,0.48,-0.06,17.43,-74.48,84.14
4:10:32AM,-0.92,0.51,-0.02,23.1,-79.17,88.97
4:10:32AM,-0.92,0.54,-0.04,25.83,-81.13,93.38
4:10:32AM,-0.92,0.56,-0.06,26.25,-83.72,94.71
4:10:32AM,-0.93,0.56,-0.1,16.31,-85.47,91.84
4:10:32AM,-0.93,0.52,-0.14,-1.75,-85.4,81.9
4:10:32AM,-0.94,0.45,-0.18,-19.74,-81.55,73.99
4:10:32AM,-0.96,0.41,-0.2,-36.54,-75.32,66.43
4:10:32AM,-0.98,0.39,-0.24,-49.91,-68.39,60.62
4:10:32AM,-0.99,0.36,-0.23,-55.51,-65.03,57.61
4:10:32AM,-0.97,0.39,-0.21,-63,-61.46,59.43
4:10:32AM,-0.99,0.38,-0.21,-61.53,-66.85,63.42
4:10:32AM,-1.01,0.44,-0.14,-42.49,-88.55,71.05
4:10:32AM,-0.99,0.54,0.02,-27.3,-95.76,77.35
4:10:32AM,-0.96,0.62,0.11,-15.89,-86.17,83.09
4:10:32AM,-0.93,0.67,0.08,-25.69,-68.53,88.55
4:10:32AM,-0.88,0.66,0,-35.98,-49.91,95.48
4:10:32AM,-0.88,0.7,-0.07,-42.14,-43.75,97.02
4:10:32AM,-0.84,0.71,-0.11,-42.35,-39.97,104.37
4:10:32AM,-0.83,0.79,-0.11,-38.92,-39.62,110.46
4:10:32AM,-0.83,0.89,-0.07,-51.52,-40.67,113.05
4:10:32AM,-0.84,0.89,0,-64.96,-43.12,111.02
4:10:32AM,-0.82,0.81,0.08,-81.48,-45.64,107.1
4:10:32AM,-0.8,0.55,0.15,-95.41,-44.31,104.72
4:10:32AM,-0.84,0.35,0.15,-81.83,-37.8,103.74
4:10:32AM,-0.87,0.29,0.12,-56.7,-34.86,103.74
4:10:32AM,-0.89,0.33,0.08,-39.76,-32.48,106.4
4:10:32AM,-0.82,0.4,0.1,-30.73,-32.83,104.3
4:10:32AM,-0.74,0.44,0.16,-37.45,-28.21,101.01
4:10:32AM,-0.71,0.44,0.17,-44.17,-25.34,97.02
4:10:32AM,-0.69,0.44,0.12,-44.87,-26.25,90.3
4:10:32AM,-0.67,0.43,0.13,-38.92,-27.16,88.62
4:10:32AM,-0.69,0.46,0.12,-33.32,-26.04,84.98
4:10:32AM,-0.7,0.41,0.13,-24.08,-25.34,78.82
4:10:32AM,-0.68,0.37,0.13,-13.51,-24.36,73.36
4:10:32AM,-0.64,0.33,0.16,-5.46,-22.33,68.53
4:10:32AM,-0.59,0.33,0.17,0.7,-19.04,61.18
4:10:32AM,-0.53,0.33,0.18,4.41,-16.66,54.6
4:10:32AM,-0.48,0.34,0.17,7.63,-12.95,50.82
4:10:32AM,-0.47,0.37,0.16,8.26,-9.73,44.59
4:10:32AM,-0.45,0.39,0.15,9.94,-5.74,38.71
4:10:32AM,-0.42,0.4,0.14,11.69,-1.47,32.9
4:10:32AM,-0.4,0.4,0.12,15.05,2.94,26.88
4:10:32AM,-0.39,0.42,0.1,19.18,6.93,19.25
4:10:32AM,-0.39,0.46,0.11,18.9,9.73,10.85
4:10:32AM,-0.35,0.46,0.11,18.69,15.61,2.24
4:10:32AM,-0.33,0.49,0.12,19.39,23.66,-5.18
4:10:32AM,-0.33,0.52,0.1,21.56,31.85,-15.26
4:10:32AM,-0.35,0.51,0.06,25.41,38.29,-21.91
4:10:32AM,-0.4,0.53,0.01,32.06,39.13,-28.84
4:10:32AM,-0.46,0.56,-0.02,37.38,40.18,-35.91
4:10:32AM,-0.53,0.57,-0.05,42.56,40.81,-44.38
4:10:32AM,-0.58,0.56,-0.08,45.57,41.16,-56.07
4:10:32AM,-0.54,0.5,-0.09,53.27,38.22,-64.4
4:10:32AM,-0.51,0.48,-0.03,69.09,36.33,-74.83
4:10:32AM,-0.51,0.53,0.02,77.98,19.04,-77.56
4:10:32AM,-0.47,0.72,0.21,65.66,-0.14,-74.76
4:10:32AM,-0.55,0.8,0.26,42.21,16.17,-77.77
4:10:32AM,-0.77,0.7,0.14,54.18,46.55,-65.31
4:10:32AM,-1.05,1.05,0.02,84.21,48.23,-29.96
4:10:32AM,-1.47,1.78,-0.03,120.4,7.7,26.25
4:10:32AM,-1.66,2.41,0.22,84.28,11.34,16.17
4:10:32AM,-1.43,2.07,0.26,52.36,6.58,-75.95
4:10:32AM,-0.84,1.11,0.29,-10.5,4.62,-87.64
4:10:32AM,-0.56,0.59,0.26,-4.76,35.35,-91.98
4:10:32AM,-0.59,0.31,0.09,21.77,41.09,-96.88
4:10:32AM,-0.62,0.22,-0.06,36.82,45.78,-92.33
4:10:32AM,-0.66,0.22,-0.18,47.04,47.32,-88.9
4:10:32AM,-0.73,0.3,-0.18,54.6,47.81,-92.89
4:10:32AM,-0.73,0.31,-0.19,58.52,49.35,-90.65
4:10:32AM,-0.79,0.38,-0.2,66.99,60.9,-78.82
4:10:32AM,-0.87,0.5,-0.31,75.74,69.58,-71.75
4:10:32AM,-0.92,0.6,-0.38,80.22,62.3,-67.62
4:10:32AM,-0.91,0.63,-0.4,88.06,38.71,-57.75
4:10:32AM,-0.85,0.66,-0.35,105.98,16.17,-43.54
4:10:32AM,-0.79,0.68,-0.28,130.48,-4.13,-28
4:10:32AM,-0.78,0.79,-0.16,145.88,-8.05,-23.8
4:10:32AM,-0.82,0.86,-0.04,127.61,3.99,-28.56
4:10:32AM,-0.89,0.9,0,88.27,22.4,-40.74
4:10:32AM,-0.9,0.78,-0.08,55.37,37.03,-47.46
4:10:32AM,-0.9,0.69,-0.14,39.9,42.21,-51.31
4:10:32AM,-0.88,0.6,-0.16,28.28,44.38,-54.11
4:10:32AM,-0.85,0.52,-0.16,16.94,47.95,-50.75
4:10:32AM,-0.81,0.5,-0.17,9.03,50.19,-44.73
4:10:32AM,-0.79,0.5,-0.17,-0.91,50.89,-41.16
4:10:32AM,-0.78,0.49,-0.17,-10.64,49.14,-39.76
4:10:32AM,-0.77,0.5,-0.16,-18.9,47.46,-37.8
4:10:32AM,-0.75,0.48,-0.17,-22.96,49.56,-29.05
4:10:32AM,-0.75,0.51,-0.18,-30.59,51.31,-21.77
4:10:32AM,-0.74,0.55,-0.2,-41.51,51.8,-19.95
4:10:32AM,-0.74,0.61,-0.21,-55.23,52.64,-27.37
4:10:32AM,-0.76,0.62,-0.24,-63.98,51.87,-37.66
4:10:32AM,-0.77,0.64,-0.28,-70.07,46.55,-49.14
4:10:32AM,-0.77,0.63,-0.3,-72.1,40.67,-57.75
4:10:32AM,-0.75,0.58,-0.28,-70.14,37.94,-57.26
4:10:32AM,-0.71,0.54,-0.3,-69.93,39.13,-50.33
4:10:32AM,-0.72,0.5,-0.33,-67.27,38.57,-43.33
4:10:32AM,-0.73,0.49,-0.37,-61.25,32.13,-41.79
4:10:32AM,-0.71,0.47,-0.41,-46.55,27.09,-43.82
4:10:32AM,-0.68,0.41,-0.51,-27.51,14.21,-35.7
4:10:32AM,-0.64,0.37,-0.59,8.61,-2.94,-20.86
4:10:32AM,-0.59,0.39,-0.62,25.83,-17.43,-3.64
4:10:32AM,-0.55,0.39,-0.63,36.4,-25.48,10.57
4:10:32AM,-0.55,0.42,-0.57,54.53,-19.95,11.48
4:10:32AM,-0.56,0.49,-0.5,65.31,3.5,0.42
4:10:32AM,-0.58,0.49,-0.44,69.09,38.01,-34.37
4:10:32AM,-0.61,0.46,-0.4,61.74,76.09,-32.2
4:10:32AM,-0.94,0.86,-0.23,-15.75,60.9,-78.96
4:10:32AM,-1.66,0.3,0.69,-129.36,-84.91,-127.4
4:10:32AM,-1.01,0.03,0.71,-90.79,2.87,-82.04
4:10:32AM,-0.69,0.11,0.08,-110.88,57.12,-33.39
4:10:32AM,-0.62,0.34,-0.44,-70.63,76.65,-39.9
4:10:32AM,-0.77,0.32,-0.6,-22.96,55.16,-37.45
4:10:32AM,-0.85,0.39,-0.51,-0.07,21.98,-20.65
4:10:32AM,-0.93,0.52,-0.35,3.99,-1.82,-19.18
4:10:32AM,-0.86,0.5,-0.19,5.67,-2.1,-16.94
4:10:32AM,-0.83,0.53,-0.15,3.08,6.37,-17.08
4:10:32AM,-0.84,0.6,-0.2,-1.4,9.94,-19.53
4:10:32AM,-0.81,0.61,-0.25,-9.03,13.16,-20.16
4:10:32AM,-0.81,0.57,-0.27,-11.55,12.95,-18.97
4:10:32AM,-0.86,0.54,-0.28,-2.38,3.43,-17.57
4:10:32AM,-0.84,0.54,-0.25,3.85,-3.15,-13.93
4:10:32AM,-0.82,0.6,-0.2,8.68,-3.57,-15.47
4:10:32AM,-0.8,0.61,-0.21,10.78,1.12,-14.98
4:10:32AM,-0.82,0.66,-0.25,13.02,2.24,-14.98
4:10:32AM,-0.81,0.64,-0.27,12.74,3.57,-16.03
4:10:32AM,-0.83,0.59,-0.29,14.07,2.1,-17.85
4:10:32AM,-0.84,0.57,-0.3,16.8,1.12,-19.04
4:10:32AM,-0.84,0.58,-0.29,18.2,-0.28,-20.58
4:10:32AM,-0.87,0.59,-0.27,17.08,-0.07,-21.42
4:10:32AM,-0.91,0.57,-0.25,16.66,0.14,-21.91
4:10:32AM,-0.99,0.55,-0.24,22.05,-1.82,-24.01
4:10:32AM,-1.04,0.51,-0.26,27.02,-7.07,-25.69
4:10:32AM,-1.03,0.47,-0.32,28.42,-11.48,-24.85
4:10:32AM,-0.98,0.47,-0.5,27.37,-11.48,-22.47
4:10:32AM,-0.99,0.5,-0.36,22.12,-6.16,-22.05
4:10:32AM,-1.04,0.49,-0.34,13.93,-1.4,-24.29
4:10:32AM,-1.11,0.47,-0.33,-0.77,-1.68,-23.17
4:10:32AM,-1.15,0.44,-0.33,-21.98,0.07,-19.6
4:10:32AM,-1.15,0.37,-0.34,-33.67,2.59,-14.63
4:10:32AM,-1.17,0.32,-0.31,-33.53,0.7,-11.41
4:10:32AM,-1.24,0.29,-0.25,-30.38,-3.08,-11.27
4:10:32AM,-1.28,0.26,-0.2,-23.94,-7.42,-7.98
4:10:32AM,-1.32,0.29,-0.18,-17.85,-16.8,-6.79
4:10:32AM,-1.27,0.33,-0.19,-7.28,-33.88,-6.02
4:10:32AM,-1.15,0.39,-0.14,-2.73,-48.93,-2.45
4:10:32AM,-1.03,0.45,-0.07,-5.88,-54.53,-0.35
4:10:32AM,-0.92,0.5,-0.01,-14.56,-49.14,2.94
4:10:32AM,-0.87,0.53,-0.03,-18.9,-43.26,7.28
4:10:32AM,-0.9,0.55,-0.07,-16.94,-41.72,13.16
4:10:32AM,-0.94,0.58,-0.1,-12.25,-42.49,19.53
4:10:32AM,-0.98,0.56,-0.13,-4.13,-44.03,26.6
4:10:32AM,-1,0.56,-0.14,4.13,-48.09,36.26
4:10:32AM,-0.96,0.56,-0.12,11.55,-51.66,44.1
4:10:32AM,-0.91,0.57,-0.08,16.38,-54.81,53.34
4:10:32AM,-0.89,0.58,-0.02,22.05,-56.91,61.18
4:10:32AM,-0.88,0.59,0.03,31.5,-61.6,69.79
4:10:32AM,-0.89,0.62,0.04,36.19,-71.68,79.73
4:10:32AM,-0.89,0.67,0.05,32.34,-80.92,88.34
4:10:32AM,-0.87,0.71,0.05,23.38,-84.91,93.52
4:10:32AM,-0.9,0.7,0,11.2,-83.37,96.18
4:10:32AM,-0.92,0.66,-0.05,2.59,-79.45,94.92
4:10:32AM,-0.96,0.57,-0.1,-4.76,-76.37,95.69
4:10:32AM,-1,0.56,-0.12,-12.11,-71.19,89.53
4:10:32AM,-1.05,0.53,-0.13,-22.47,-65.45,77.28
4:10:32AM,-1.07,0.5,-0.14,-34.86,-53.48,66.57
4:10:32AM,-1.09,0.39,-0.19,-44.38,-55.79,65.17
4:10:32AM,-1.12,0.35,-0.19,-42.42,-74.06,69.65
4:10:32AM,-1.11,0.36,-0.12,-39.55,-95.2,75.53
4:10:32AM,-1.06,0.4,0.01,-41.16,-105.56,84.07
4:10:32AM,-0.97,0.46,0.14,-43.33,-100.87,88.48
4:10:32AM,-0.88,0.53,0.19,-46.06,-81.69,87.64
4:10:32AM,-0.85,0.58,0.14,-52.22,-67.27,86.73
4:10:32AM,-0.8,0.54,0.07,-49.49,-57.19,90.51
4:10:32AM,-0.79,0.6,-0.01,-38.5,-46.69,94.71
4:10:32AM,-0.82,0.66,-0.12,-28.7,-42.91,101.78
4:10:32AM,-0.84,0.75,-0.13,-22.75,-48.86,110.53
4:10:32AM,-0.81,0.89,-0.04,-36.47,-50.96,110.04
4:10:32AM,-0.74,0.91,0.07,-54.74,-48.79,113.4
4:10:32AM,-0.87,0.76,0.09,-69.93,-45.92,109.97
4:10:32AM,-0.8,0.51,0.12,-70.49,-48.02,104.51
4:10:32AM,-0.78,0.4,0.2,-52.57,-43.12,105.21
4:10:32AM,-0.78,0.41,0.18,-39.41,-35.35,103.88
4:10:32AM,-0.8,0.4,0.11,-34.09,-31.22,103.88
4:10:32AM,-0.78,0.47,0.09,-32.62,-34.16,101.99
4:10:32AM,-0.71,0.47,0.13,-30.17,-35,98.84
4:10:32AM,-0.66,0.43,0.15,-22.82,-32.2,94.64
4:10:32AM,-0.61,0.41,0.16,-16.03,-27.3,72.17
4:10:32AM,-0.59,0.38,0.14,-8.68,-22.33,84.35
4:10:32AM,-0.56,0.37,0.15,-3.71,-18.34,78.4
4:10:32AM,-0.53,0.35,0.17,2.31,-13.65,72.73
4:10:32AM,-0.53,0.34,0.15,5.53,-9.24,66.43
4:10:32AM,-0.52,0.38,0.13,10.78,-7.21,63.56
4:10:32AM,-0.52,0.44,0.11,13.44,-5.46,56.7
4:10:32AM,-0.48,0.47,0.11,11.97,-2.31,47.25
4:10:32AM,-0.43,0.49,0.12,10.15,0.28,41.65
4:10:32AM,-0.41,0.5,0.13,6.72,4.69,28
4:10:32AM,-0.35,0.46,0.12,7.49,7.84,24.08
4:10:32AM,-0.36,0.47,0.11,8.19,12.32,11.27
4:10:32AM,-0.37,0.45,0.07,9.45,13.09,2.45
4:10:32AM,-0.35,0.47,0.06,10.43,17.92,-5.39
4:10:32AM,-0.37,0.52,0.04,11.76,22.82,-14.28
4:10:32AM,-0.36,0.52,0.05,17.08,27.44,-18.97
4:10:32AM,-0.35,0.5,0.07,20.72,34.37,-26.88
4:10:32AM,-0.36,0.48,0.09,22.96,39.97,-35.42
4:10:32AM,-0.37,0.45,0.08,23.45,44.03,-42.98
4:10:32AM,-0.37,0.42,0.07,25.2,48.86,-50.61
4:10:32AM,-0.4,0.38,0.05,29.68,50.75,-57.47
4:10:32AM,-0.42,0.36,0.03,39.62,53.97,-65.59
4:10:32AM,-0.44,0.34,0.01,57.89,58.38,-72.17
4:10:32AM,-0.44,0.38,-0.01,77.49,50.89,-71.19
4:10:32AM,-0.47,0.57,0.09,78.54,33.81,-69.23
4:10:32AM,-0.48,0.86,0.14,57.89,42.28,-67.13
4:10:32AM,-0.67,0.78,-0.08,64.19,66.92,-55.37
4:10:32AM,-1.03,0.98,-0.21,93.8,62.23,-27.37
4:10:32AM,-1.42,1.59,-0.12,141.05,29.19,7.14
4:10:32AM,-1.46,2.32,0.01,134.89,16.03,21.63
4:10:32AM,-1.19,2.55,0.23,92.61,15.68,-48.23
4:10:32AM,-0.85,1.5,0.45,3.78,20.51,-71.75
4:10:32AM,-0.69,0.91,0.36,-13.37,37.87,-79.1
4:10:32AM,-0.75,0.64,0.16,-11.97,51.38,-85.75
4:10:32AM,-0.86,0.46,-0.11,-1.61,49.84,-89.53
4:10:32AM,-0.91,0.29,-0.09,23.73,51.03,-88.06
4:10:32AM,-0.93,0.28,-0.15,46.06,45.01,-94.5
4:10:32AM,-0.9,0.28,-0.2,51.87,52.29,-93.17
4:10:32AM,-0.87,0.27,-0.21,53.48,46.76,-88.2
4:10:32AM,-0.85,0.32,-0.17,63.28,49.21,-79.94
4:10:32AM,-0.85,0.4,-0.24,73.36,36.61,-70.7
4:10:32AM,-0.83,0.5,-0.29,81.41,39.06,-60.69
4:10:32AM,-0.82,0.55,-0.32,96.74,20.65,-49.56
4:10:32AM,-0.76,0.64,-0.27,113.54,7.07,-35.28
4:10:32AM,-0.72,0.73,-0.2,119.14,3.01,-25.97
4:10:32AM,-0.75,0.8,-0.14,117.46,3.29,-28
4:10:32AM,-0.78,0.83,-0.11,104.51,9.03,-36.4
4:10:32AM,-0.79,0.8,-0.09,82.11,19.88,-41.37
4:10:32AM,-0.82,0.74,-0.13,65.8,31.85,-45.08
4:10:32AM,-0.85,0.68,-0.18,56.07,39.48,-47.32
4:10:32AM,-0.88,0.63,-0.21,44.24,44.1,-49.91
4:10:32AM,-0.9,0.6,-0.22,30.94,44.31,-50.33
4:10:32AM,-0.9,0.58,-0.2,18.62,44.66,-45.78
4:10:32AM,-0.88,0.57,-0.18,3.92,42.56,-41.65
4:10:32AM,-0.85,0.55,-0.19,-9.24,37.87,-37.94
4:10:32AM,-0.83,0.55,-0.18,-16.03,31.29,-40.81
4:10:32AM,-0.82,0.56,-0.17,-27.23,27.86,-44.24
4:10:32AM,-0.79,0.55,-0.16,-35.49,30.38,-42.21
4:10:32AM,-0.77,0.56,-0.18,-44.24,35.42,-40.32
4:10:32AM,-0.76,0.55,-0.22,-49.56,38.01,-42
4:10:32AM,-0.75,0.55,-0.25,-50.12,37.31,-45.43
4:10:32AM,-0.73,0.62,-0.26,-62.44,33.67,-70.21
4:10:32AM,-0.71,0.54,-0.25,-75.6,31.43,-54.95
4:10:32AM,-0.69,0.53,-0.26,-78.26,31.36,-54.39
4:10:32AM,-0.71,0.52,-0.3,-80.15,31.64,-54.18
4:10:32AM,-0.76,0.48,-0.36,-72.59,26.04,-50.47
4:10:32AM,-0.76,0.5,-0.4,-62.79,20.86,-47.04
4:10:32AM,-0.73,0.5,-0.46,-55.58,16.31,-42.63
4:10:32AM,-0.68,0.48,-0.55,-36.12,10.01,-34.37
4:10:32AM,-0.64,0.44,-0.66,-2.52,-1.75,-20.79
4:10:32AM,-0.55,0.38,-0.72,31.36,-14.98,1.47
4:10:32AM,-0.53,0.41,-0.67,53.27,-23.38,12.18
4:10:32AM,-0.52,0.49,-0.56,66.36,-8.68,-0.14
4:10:32AM,-0.54,0.51,-0.45,71.12,28.42,-18.34
4:10:32AM,-0.59,0.5,-0.36,60.13,78.68,-37.59
4:10:32AM,-0.75,0.74,-0.21,16.59,101.5,-70.14
4:10:32AM,-1.67,0.22,1.1,-62.23,-53.2,-108.15
4:10:32AM,-1.02,0.17,0.76,-94.36,8.26,-68.32
4:10:32AM,-0.59,0.33,-0.06,-98.91,62.09,-45.5
4:10:32AM,-0.6,0.45,-0.49,-67.76,78.75,-46.48
4:10:32AM,-0.74,0.49,-0.61,-43.33,55.65,-34.37
4:10:32AM,-0.81,0.53,-0.49,-25.55,24.5,-25.9
4:10:32AM,-0.82,0.52,-0.29,-13.79,11.9,-18.55
4:10:32AM,-0.84,0.59,-0.18,-4.76,14.21,-17.08
4:10:32AM,-0.99,0.67,-0.18,-8.19,16.31,-15.47
4:10:32AM,-0.84,0.7,-0.23,-23.87,16.1,-19.53
4:10:32AM,-0.8,0.59,-0.3,-25.97,15.54,-22.82
4:10:32AM,-0.83,0.5,-0.34,-13.58,5.95,-20.93
4:10:32AM,-0.81,0.48,-0.31,-2.03,1.19,-13.3
4:10:32AM,-0.8,0.53,-0.26,1.75,3.57,-13.23
4:10:32AM,-0.79,0.54,-0.24,3.01,6.93,-15.4
4:10:32AM,-0.83,0.51,-0.28,5.88,4.97,-16.45
4:10:32AM,-0.79,0.49,-0.31,12.53,5.95,-12.74
4:10:32AM,-0.81,0.56,-0.3,18.9,8.26,-17.01
4:10:32AM,-0.88,0.56,-0.27,17.57,8.54,-21.35
4:10:32AM,-0.91,0.58,-0.27,13.09,8.89,-25.62
4:10:32AM,-0.93,0.62,-0.28,8.47,3.71,-28.21
4:10:32AM,-0.89,0.64,-0.28,5.46,-0.98,-28.21
4:10:32AM,-0.82,0.65,-0.26,3.22,-1.54,-28.28
4:10:32AM,-0.81,0.63,-0.21,2.59,0.91,-28.42
4:10:32AM,-0.87,0.6,-0.17,6.37,3.5,-29.4
4:10:32AM,-0.97,0.57,-0.2,12.53,5.25,-31.08
4:10:32AM,-1.05,0.55,-0.27,15.47,2.24,-34.02
4:10:32AM,-1.06,0.53,-0.34,11.83,-3.01,-36.26
4:10:32AM,-1.02,0.49,-0.34,12.46,-8.61,-35.42
4:10:32AM,-0.98,0.49,-0.31,10.43,-11.69,-35.56
4:10:32AM,-0.96,0.48,-0.27,-3.36,-6.51,-33.18
4:10:32AM,-0.98,0.45,-0.3,-25.76,3.71,-31.29
4:10:32AM,-1.05,0.35,-0.33,-42.7,10.78,-26.32
4:10:32AM,-1.27,0.24,-0.31,-42.49,4.13,-21.49
4:10:32AM,-1.48,0.17,-0.2,-33.88,-14.21,-14.28
4:10:32AM,-1.56,0.19,-0.03,-23.31,-19.81,-0.21
4:10:32AM,-1.55,0.32,0.01,-6.23,-19.11,12.04
4:10:32AM,-1.44,0.46,-0.09,9.8,-38.43,18.69
4:10:32AM,-1.27,0.6,-0.07,17.78,-61.25,22.05
4:10:32AM,-1.09,0.68,0.01,17.29,-69.23,22.75
4:10:32AM,-0.95,0.69,0.02,8.82,-67.27,24.99
4:10:32AM,-0.86,0.66,-0.05,0.77,-62.79,29.75
4:10:32AM,-0.85,0.66,-0.15,-5.25,-59.71,34.09
4:10:32AM,-0.9,0.64,-0.22,-10.15,-58.03,33.95
4:10:32AM,-0.96,0.58,-0.22,-11.06,-57.54,38.43
4:10:32AM,-1.02,0.53,-0.21,-11.2,-67.55,44.45
4:10:32AM,-1,0.5,-0.15,-7.77,-78.54,52.36
4:10:32AM,-0.96,0.5,-0.09,16.52,-88.06,62.51
4:10:32AM,-0.91,0.56,0.03,4.62,-94.57,75.04
4:10:32AM,-0.85,0.62,0.06,10.08,-98.84,88.76
4:10:32AM,-0.79,0.69,-0.01,14.07,-104.09,96.67
4:10:32AM,-0.73,0.76,0,6.79,-103.11,102.34
4:10:32AM,-0.76,0.84,0.03,-11.41,-102.48,108.99
4:10:32AM,-0.8,0.88,0.05,-24.5,-96.04,111.02
4:10:32AM,-0.9,0.87,-0.02,-31.08,-81.83,101.78
4:10:32AM,-0.99,0.82,-0.11,-39.76,-68.67,99.47
4:10:32AM,-1.05,0.79,-0.18,-64.68,-57.33,99.75
4:10:32AM,-1.06,0.71,-0.21,-78.19,-52.92,95.06
4:10:32AM,-1.04,0.64,-0.21,-84.49,-49,84.42
4:10:32AM,-1.11,0.54,-0.23,-80.78,-55.65,78.19
4:10:32AM,-1.16,0.49,-0.2,-82.04,-74.2,70.49
4:10:32AM,-1.15,0.39,-0.09,-77.14,-87.15,70.56
4:10:32AM,-1.08,0.33,0.06,-71.12,-87.43,87.15
4:10:32AM,-0.95,0.44,0.16,-69.72,-78.33,102.27
4:10:32AM,-0.83,0.54,0.13,-68.67,-61.46,107.38
4:10:32AM,-0.78,0.58,0.04,-59.15,-48.23,115.36
4:10:32AM,-0.81,0.74,-0.03,-52.57,-44.8,121.8
4:10:32AM,-0.81,0.68,-0.02,-57.05,-43.96,127.47
4:10:32AM,-0.79,0.72,0.03,-71.26,-40.88,127.05
4:10:32AM,-0.8,0.62,0.03,-81.76,-38.01,126.91
4:10:32AM,-0.83,0.51,0.02,-82.39,-37.17,127.54
4:10:32AM,-0.83,0.39,0.03,-75.88,-38.99,122.43
4:10:32AM,-0.79,0.35,0.05,-59.71,-42.7,119.42
4:10:32AM,-0.72,0.35,0.1,-47.32,-43.54,115.85
4:10:32AM,-0.66,0.4,0.17,-40.39,-37.94,107.66
4:10:32AM,-0.63,0.37,0.16,-32.83,-30.24,102.06
4:10:32AM,-0.62,0.36,0.13,-22.96,-25.34,99.54
4:10:32AM,-0.63,0.37,0.11,-15.54,-24.43,96.53
4:10:32AM,-0.62,0.38,0.11,-10.64,-23.1,92.75
4:10:32AM,-0.61,0.41,0.11,-7.98,-21.07,88.34
4:10:32AM,-0.57,0.42,0.12,-7.42,-18.55,86.94
4:10:32AM,-0.54,0.41,0.14,-8.05,-14.07,82.81
4:10:32AM,-0.48,0.41,0.15,-8.12,-10.57,77.91
4:10:32AM,-0.43,0.41,0.16,-7,-5.11,74.55
4:10:32AM,-0.4,0.43,0.17,-6.79,0.42,66.36
4:10:32AM,-0.4,0.42,0.15,-4.2,3.08,58.87
4:10:32AM,-0.37,0.44,0.16,-1.05,4.97,53.69
4:10:32AM,-0.34,0.5,0.15,-3.22,6.86,46.62
4:10:32AM,-0.35,0.52,0.16,-0.91,10.57,40.88
4:10:32AM,-0.33,0.53,0.14,4.41,16.24,33.6
4:10:32AM,-0.33,0.52,0.15,8.05,22.26,25.41
4:10:32AM,-0.35,0.52,0.15,11.62,26.04,15.4
4:10:32AM,-0.32,0.53,0.15,13.72,29.05,12.04
4:10:32AM,-0.32,0.57,0.15,10.01,33.74,5.25
4:10:32AM,-0.34,0.59,0.12,11.76,40.6,-0.63
4:10:32AM,-0.34,0.61,0.09,17.29,42.63,-3.92
4:10:32AM,-0.37,0.6,0.11,20.72,44.03,-12.46
4:10:32AM,-0.32,0.52,0.15,27.44,46.62,-19.81
4:10:32AM,-0.27,0.52,0.18,30.03,50.47,-26.95
4:10:32AM,-0.29,0.53,0.16,31.99,52.71,-36.33
4:10:32AM,-0.31,0.57,0.12,40.6,56.56,-42.42
4:10:32AM,-0.33,0.65,0.07,49.84,61.81,-48.51
4:10:32AM,-0.37,0.72,0.03,58.59,64.61,-56.91
4:10:32AM,-0.38,0.78,0.02,61.53,65.8,-63.84
4:10:32AM,-0.41,0.75,0.04,63.42,66.92,-72.38
4:10:32AM,-0.42,0.69,0.08,70.49,68.25,-77.91
4:10:32AM,-0.44,0.74,0.13,76.09,53.76,-77.98
4:10:32AM,-0.41,0.95,0.31,58.52,24.22,-67.27
4:10:32AM,-0.4,1.22,0.57,5.6,13.58,-50.75
4:10:32AM,-0.57,1.35,0.53,20.23,46.48,-17.43
4:10:32AM,-1.34,1.75,0.3,46.69,87.78,21.7
4:10:32AM,-2.31,2.53,-0.21,19.39,60.69,-23.17
4:10:32AM,-1.75,2.13,0.08,-30.24,-1.96,-66.01
4:10:32AM,-0.8,0.96,0.25,-38.57,-0.98,-84.7
4:10:32AM,-0.42,0.3,0.28,-8.75,28.7,-97.72
4:10:32AM,-0.41,0.06,0.29,13.93,50.4,-101.92
4:10:32AM,-0.52,-0.02,0.05,48.93,55.37,-115.43
4:10:32AM,-0.6,-0.07,-0.09,73.29,56.28,-117.74
4:10:32AM,-0.67,-0.05,-0.11,97.51,45.22,-102.76
4:10:32AM,-0.69,0.23,-0.02,95.69,54.46,-80.85
4:10:32AM,-0.83,0.59,-0.04,71.61,72.73,-78.54
4:10:32AM,-0.95,0.77,-0.2,68.25,76.79,-79.38
4:10:32AM,-1.06,0.87,-0.33,87.92,57.89,-67.83
4:10:32AM,-1.08,1.05,-0.32,106.75,25.41,-52.99
4:10:32AM,-0.93,1.18,-0.14,103.18,-4.83,-59.22
4:10:32AM,-0.71,1.12,0.07,94.92,-9.73,-71.47
4:10:32AM,-0.63,0.92,0.18,87.78,8.26,-77.28
4:10:32AM,-0.66,0.75,0.13,66.92,34.16,-77.91
4:10:32AM,-0.79,0.61,-0.04,42.7,55.79,-84.91
4:10:32AM,-0.89,0.47,-0.18,32.55,62.86,-89.95
4:10:32AM,-0.96,0.37,-0.24,33.88,60.62,-91.98
4:10:32AM,-0.97,0.35,-0.24,47.32,59.43,-92.4
4:10:32AM,-0.96,0.3,-0.22,63.21,62.65,-84.07
4:10:32AM,-0.97,0.31,-0.21,69.86,64.82,-71.05
4:10:32AM,-0.96,0.32,-0.22,66.5,64.4,-57.75
4:10:32AM,-0.93,0.36,-0.22,53.55,62.86,-42.49
4:10:32AM,-0.91,0.41,-0.22,32.27,59.08,-32.41
4:10:32AM,-0.88,0.43,-0.21,8.12,54.67,-22.4
4:10:32AM,-0.83,0.44,-0.22,-5.04,52.15,-9.38
4:10:32AM,-0.81,0.49,-0.22,-3.43,52.36,-1.19
4:10:32AM,-0.81,0.58,-0.26,3.5,50.19,1.68
4:10:32AM,-0.81,0.67,-0.27,-2.31,45.15,2.66
4:10:32AM,-0.77,0.72,-0.3,-7.21,36.54,2.66
4:10:32AM,-0.73,0.74,-0.29,-11.9,28.98,-3.92
4:10:32AM,-0.67,0.72,-0.3,-8.19,19.88,-14.63
4:10:32AM,-0.63,0.71,-0.3,-0.42,9.24,-29.61
4:10:32AM,-0.61,0.69,-0.31,5.25,-0.56,-47.95
4:10:32AM,-0.62,0.6,-0.29,1.75,-6.65,-47.04
4:10:32AM,-0.65,0.58,-0.3,-10.85,-8.4,-36.89
4:10:32AM,-0.67,0.57,-0.29,-15.47,-1.19,-28.91
4:10:32AM,-0.69,0.59,-0.32,-6.93,4.76,-31.78
4:10:32AM,-0.68,0.57,-0.36,7.42,-0.07,-32.62
4:10:32AM,-0.65,0.48,-0.44,20.79,-17.01,-23.66
4:10:32AM,-0.62,0.36,-0.54,49.91,-45.64,-7.07
4:10:32AM,-0.6,0.34,-0.54,79.45,-73.43,6.65
4:10:32AM,-0.6,0.37,-0.51,100.03,-86.8,7.7
4:10:32AM,-0.61,0.37,-0.48,111.58,-80.36,5.88
4:10:32AM,-0.64,0.39,-0.45,112,-60.41,4.34
4:10:32AM,-0.67,0.42,-0.42,98.7,-30.66,-11.13
4:10:32AM,-0.72,0.38,-0.42,84.21,1.54,-34.72
4:10:32AM,-0.74,0.39,-0.39,57.96,35.98,-59.01
4:10:32AM,-0.77,0.34,-0.35,14.56,77.91,-77.28
4:10:32AM,-0.8,0.31,-0.33,-24.29,105.77,-90.65
4:10:32AM,-0.87,0.37,-0.25,-58.24,118.16,-92.33
4:10:32AM,-1.05,0.6,-0.06,-163.03,70.28,-84.77
4:10:32AM,-1.06,0.61,0.08,-206.01,18.48,-73.85
4:10:32AM,-0.92,0.39,0.11,-148.33,17.92,-65.17
4:10:32AM,-0.84,0.32,-0.17,-67.76,48.16,-62.02
4:10:32AM,-0.8,0.35,-0.43,-54.95,54.46,-55.93
4:10:32AM,-0.8,0.37,-0.54,-43.96,48.86,-55.72
4:10:32AM,-0.8,0.44,-0.5,-45.64,37.45,-58.59
4:10:32AM,-0.81,0.52,-0.36,-61.11,26.81,-60.06
4:10:32AM,-0.81,0.51,-0.22,-73.5,29.12,-59.85
4:10:32AM,-0.87,0.44,-0.13,-53.76,21.07,-56.21
4:10:32AM,-0.83,0.41,-0.17,-28.98,20.09,-50.68
4:10:32AM,-0.8,0.44,-0.29,-10.99,17.85,-48.93
4:10:32AM,-0.76,0.49,-0.31,-3.92,17.22,-48.86
4:10:32AM,-0.78,0.53,-0.29,-3.71,13.16,-46.97
4:10:32AM,-0.78,0.55,-0.26,-2.45,9.52,-44.8
4:10:32AM,-0.78,0.52,-0.27,0.7,6.02,-42.49
4:10:32AM,-0.78,0.52,-0.28,3.85,-0.35,-38.99
4:10:32AM,-0.75,0.57,-0.27,6.09,-6.02,-35.49
4:10:32AM,-0.71,0.64,-0.27,5.53,-7.91,-32.9
4:10:32AM,-0.67,0.67,-0.27,3.85,-7.56,-30.59
4:10:32AM,-0.68,0.71,-0.25,1.89,-7.91,-28.07
4:10:32AM,-0.87,0.74,-0.24,-2.87,-10.99,-27.51
4:10:32AM,-0.81,0.68,-0.23,-11.06,-15.61,-27.72
4:10:32AM,-0.81,0.59,-0.21,-14.84,-20.65,-22.68
4:10:32AM,-0.79,0.59,-0.19,-18.34,-22.54,-18.13
4:10:32AM,-0.77,0.66,-0.2,-19.95,-21.35,-16.94
4:10:32AM,-0.77,0.74,-0.24,-22.89,-19.53,-14.91
4:10:32AM,-0.82,0.8,-0.29,-26.39,-21.14,-14.21
4:10:32AM,-0.85,0.81,-0.29,-29.12,-23.59,-11.97
4:10:32AM,-0.91,0.83,-0.26,-34.09,-26.74,-9.52
4:10:32AM,-0.98,0.86,-0.22,-40.39,-32.27,-5.25
4:10:32AM,-0.98,0.82,-0.2,-47.95,-37.31,-3.78
4:10:32AM,-1.01,0.82,-0.14,-65.03,-38.71,-2.1
4:10:32AM,-1.08,0.84,-0.1,-90.58,-38.43,3.01
4:10:32AM,-1.2,0.79,-0.07,-111.86,-43.05,12.25
4:10:32AM,-1.28,0.69,-0.06,-115.22,-54.88,25.34
4:10:32AM,-1.26,0.65,-0.04,-117.95,-69.23,37.59
4:10:32AM,-1.13,0.57,-0.15,-113.05,-74.55,47.67
4:10:32AM,-1,0.56,-0.24,-109.9,-74.48,57.4
4:10:32AM,-0.89,0.59,-0.25,-109.41,-70.84,62.72
4:10:32AM,-0.83,0.59,-0.24,-105.14,-62.93,67.48
4:10:32AM,-0.83,0.59,-0.22,-100.31,-52.43,70.28
4:10:32AM,-0.88,0.6,-0.2,-97.3,-42.84,68.95
4:10:32AM,-0.96,0.55,-0.16,-92.54,-40.32,69.93
4:10:32AM,-1.02,0.51,-0.15,-87.08,-38.01,70.21
4:10:32AM,-1.04,0.47,-0.19,-80.99,-34.3,71.61
4:10:32AM,-1,0.44,-0.21,-75.39,-29.33,73.15
4:10:32AM,-0.93,0.43,-0.21,-70.91,-23.73,72.17
4:10:32AM,-0.84,0.41,-0.25,-63.56,-20.72,70.56
4:10:31AM,-1.18,0.7,-0.08,0.7,-60.2,16.66
4:10:31AM,-1.12,0.79,0.03,1.26,-68.67,29.68
4:10:31AM,-0.96,0.81,0.05,0.28,-76.86,48.65
4:10:31AM,-0.83,0.85,0.03,0.91,-91.84,71.96
4:10:31AM,-0.71,0.88,0.02,5.74,-104.02,96.39
4:10:31AM,-0.61,0.88,0.02,8.75,-112.84,127.54
4:10:31AM,-0.56,0.92,0.05,-15.54,-119.07,157.78
4:10:31AM,-0.54,0.99,0.1,-17.64,-118.51,179.76
4:10:31AM,-0.56,1.06,0.13,-39.9,-112.49,186.34
4:10:31AM,-0.62,1.09,0.12,-59.36,-103.53,175.91
4:10:31AM,-0.66,1.05,0.03,-67.13,-93.24,162.61
4:10:31AM,-0.77,1.05,-0.08,-64.33,-92.75,141.96
4:10:31AM,-0.87,1.03,-0.19,-39.2,-97.09,107.38
4:10:31AM,-0.93,0.99,-0.24,-13.58,-101.5,90.23
4:10:31AM,-0.97,0.95,-0.27,-2.03,-103.25,85.82
4:10:31AM,-0.94,0.93,-0.25,-16.45,-96.18,85.19
4:10:31AM,-0.88,0.87,-0.24,-38.5,-85.4,84.14
4:10:31AM,-0.85,0.81,-0.22,-51.94,-88.97,85.12
4:10:31AM,-0.82,0.88,-0.06,-74.55,-98.21,90.23
4:10:31AM,-0.81,0.93,0.11,-119.91,-106.26,100.38
4:10:31AM,-0.7,0.87,0.24,-126.91,-90.44,104.79
4:10:31AM,-0.65,0.86,0.29,-107.45,-62.09,92.19
4:10:31AM,-0.6,0.83,0.2,-96.46,-34.72,91.56
4:10:31AM,-0.61,0.84,0.05,-103.95,-24.57,100.31
4:10:31AM,-0.49,0.86,0.04,-102.48,-16.31,137.9
4:10:31AM,-0.33,0.92,0.01,-82.88,-7.07,151.97
4:10:31AM,-0.28,1.03,-0.02,-79.87,0.49,151.06
4:10:31AM,-0.25,1.06,0,-102.69,10.64,140.77
4:10:31AM,-0.43,0.98,-0.01,-109.27,5.39,131.81
4:10:31AM,-0.63,0.8,0.01,-90.44,-6.09,116.83
4:10:31AM,-0.71,0.59,0.02,-67.76,-13.37,103.74
4:10:31AM,-0.73,0.47,0.09,-59.29,-16.45,100.59
4:10:31AM,-0.75,0.4,0.1,-57.33,-23.52,97.65
4:10:31AM,-0.68,0.37,0.13,-54.39,-30.1,93.8
4:10:31AM,-0.58,0.38,0.17,-46.06,-35.28,91.77
4:10:31AM,-0.5,0.45,0.17,-36.82,-36.61,86.31
4:10:31AM,-0.46,0.48,0.14,-26.32,-34.09,76.86
4:10:31AM,-0.44,0.46,0.09,-19.67,-31.22,64.19
4:10:31AM,-0.43,0.39,0.06,-11.55,-29.75,53.41
4:10:31AM,-0.38,0.32,0.04,0.07,-28.56,44.03
4:10:31AM,-0.29,0.31,0.04,8.68,-23.73,33.04
4:10:31AM,-0.2,0.28,0.04,16.66,-16.73,24.43
4:10:31AM,-0.14,0.3,0.06,22.61,-11.76,16.94
4:10:31AM,-0.08,0.35,0.06,31.78,-6.72,5.04
4:10:31AM,-0.04,0.4,0.06,38.22,0.63,-5.53
4:10:31AM,-0.04,0.46,0.05,43.05,7.28,-17.64
4:10:31AM,-0.08,0.52,0.05,48.44,14.63,-28.21
4:10:31AM,-0.12,0.58,0.02,51.17,20.79,-40.04
4:10:31AM,-0.17,0.62,0,47.11,25.2,-47.11
4:10:31AM,-0.23,0.61,-0.04,47.53,28.91,-58.94
4:10:31AM,-0.25,0.56,-0.07,50.61,28.77,-69.86
4:10:31AM,-0.23,0.53,-0.1,58.38,28.98,-81.55
4:10:31AM,-0.23,0.47,-0.13,70.63,26.32,-92.82
4:10:31AM,-0.28,0.44,-0.08,84.84,14.84,-101.01
4:10:31AM,-0.26,0.49,0.11,93.87,3.08,-100.59
4:10:31AM,-0.14,0.66,0.21,98,18.48,-97.51
4:10:31AM,-0.24,0.77,0.22,97.37,27.58,-84.84
4:10:31AM,-0.47,1.04,0.16,116.34,34.51,-38.71
4:10:31AM,-0.88,1.71,0.18,148.82,-4.69,34.65
4:10:31AM,-0.99,2.81,-0.05,185.85,-7.35,68.11
4:10:31AM,-0.69,3.25,-0.12,85.26,-28.7,36.82
4:10:31AM,-0.24,2.67,0.5,44.38,-41.3,-72.66
4:10:31AM,-0.04,1.31,0.75,1.54,6.02,-101.29
4:10:31AM,-0.27,0.79,0.28,9.45,47.18,-100.38
4:10:31AM,-0.61,0.65,-0.05,33.39,62.65,-111.65
4:10:31AM,-0.65,0.52,-0.17,55.79,57.75,-119.14
4:10:31AM,-0.61,0.43,-0.16,62.02,42.91,-118.37
4:10:31AM,-0.52,0.38,-0.08,41.16,30.45,-101.08
4:10:31AM,-0.46,0.37,-0.07,27.44,25.06,-87.64
4:10:31AM,-0.45,0.38,-0.13,44.66,25.06,-82.39
4:10:31AM,-0.45,0.45,-0.2,78.12,25.55,-78.96
4:10:31AM,-0.48,0.55,-0.26,106.33,25.41,-67.2
4:10:31AM,-0.53,0.63,-0.28,123.2,18.48,-40.88
4:10:31AM,-0.58,0.87,-0.28,134.61,2.38,-2.73
4:10:31AM,-0.61,0.92,-0.24,140.91,-17.01,26.46
4:10:31AM,-0.58,1.04,-0.17,134.82,-26.74,59.36
4:10:31AM,-0.54,1.1,-0.16,117.81,-31.92,90.37
4:10:31AM,-0.45,1.18,-0.15,99.89,-34.16,109.62
4:10:31AM,-0.4,1.25,-0.13,71.05,-34.86,97.23
4:10:31AM,-0.38,1.24,-0.11,40.32,-28.35,50.19
4:10:31AM,-0.37,1.2,-0.08,39.13,-9.17,-12.67
4:10:31AM,-0.36,1.07,-0.07,48.51,8.75,-66.85
4:10:31AM,-0.35,0.9,-0.03,40.11,26.04,-81.2
4:10:31AM,-0.34,0.84,-0.01,12.6,50.82,-70.56
4:10:31AM,-0.34,0.83,-0.04,-8.96,76.44,-66.78
4:10:31AM,-0.35,0.87,-0.05,-25.9,102.55,-67.69
4:10:31AM,-0.32,0.85,-0.07,-36.33,128.1,-67.13
4:10:31AM,-0.27,0.85,-0.13,-32.69,153.51,-65.45
4:10:31AM,-0.27,0.94,-0.2,-40.32,169.54,-69.37
4:10:31AM,-0.28,0.96,-0.27,-58.66,170.52,-74.13
4:10:31AM,-0.25,0.89,-0.32,-71.54,167.86,-71.89
4:10:31AM,-0.26,0.84,-0.35,-68.39,159.6,-65.31
4:10:31AM,-0.32,0.83,-0.41,-51.73,139.02,-58.31
4:10:31AM,-0.32,0.86,-0.44,-41.51,117.67,-54.18
4:10:31AM,-0.3,0.87,-0.54,-35.63,92.75,-49.91
4:10:31AM,-0.3,0.76,-0.72,-16.94,58.45,-38.99
4:10:31AM,-0.26,0.7,-0.74,14.77,21.98,-27.16
4:10:31AM,-0.21,0.7,-0.68,33.81,0.07,-11.2
4:10:31AM,-0.32,0.81,-0.55,23.94,-29.19,-15.26
4:10:31AM,-0.47,0.9,-0.38,-19.81,-67.83,-22.61
4:10:31AM,-0.58,0.83,-0.21,-49.98,-100.38,-23.66
4:10:31AM,-0.65,0.69,0.16,-23.52,-89.25,-9.66
4:10:31AM,-0.67,0.64,0.39,6.09,-14.91,7
4:10:31AM,-0.65,0.67,0.3,0.21,54.53,3.08
4:10:31AM,-0.62,0.77,-0.03,9.38,80.5,-20.51
4:10:31AM,-0.57,0.83,-0.3,11.2,68.32,-24.5
4:10:31AM,-0.49,0.9,-0.5,13.3,35.07,-15.26
4:10:31AM,-0.48,0.94,-0.5,14.14,1.26,-11.9
4:10:31AM,-0.42,0.87,-0.38,24.71,-22.68,-6.72
4:10:31AM,-0.35,0.9,-0.24,28.07,-22.54,-0.28
4:10:31AM,-0.35,0.91,-0.18,27.79,-9.03,-16.1
4:10:31AM,-0.38,0.82,-0.19,27.37,3.22,-19.95
4:10:31AM,-0.46,0.89,-0.22,28.28,4.41,-18.62
4:10:31AM,-0.57,1.04,-0.21,32.48,-5.81,-17.99
4:10:31AM,-0.57,1.18,-0.14,24.71,-10.22,-24.99
4:10:31AM,-0.49,1.14,-0.1,12.88,-14.98,-29.68
4:10:31AM,-0.41,0.98,-0.13,11.62,-18.62,-33.81
4:10:31AM,-0.38,0.9,-0.15,18.9,-15.12,-35.14
4:10:31AM,-0.4,0.92,-0.14,25.76,-5.18,-36.96
4:10:31AM,-0.49,0.98,-0.21,28.84,4.27,-39.06
4:10:31AM,-0.6,1.05,-0.27,26.81,0.77,-38.71
4:10:31AM,-0.61,1.11,-0.3,22.4,-2.66,-38.22
4:10:31AM,-0.59,1.11,-0.31,20.58,-4.34,-29.82
4:10:31AM,-0.59,1.12,-0.29,16.03,-7.84,-24.15
4:10:31AM,-0.6,1.13,-0.17,-1.26,-8.89,-16.38
4:10:31AM,-0.68,1.17,-0.05,-29.82,1.33,-12.18
4:10:31AM,-0.76,1.08,-0.02,-58.45,21.28,-8.47
4:10:31AM,-0.93,0.92,-0.1,-61.46,22.96,0.91
4:10:31AM,-1.11,0.88,-0.08,-55.37,4.34,12.46
4:10:31AM,-1.19,0.87,-0.03,-49.28,-21.56,20.58
4:10:31AM,-1.05,0.85,-0.06,-39.62,-50.68,28.35
4:10:31AM,-0.78,0.89,-0.1,-27.58,-75.67,33.88
4:10:31AM,-0.62,0.95,-0.08,-21.84,-86.94,37.73
4:10:31AM,-0.55,1.01,-0.07,-21.14,-92.19,39.41
4:10:31AM,-0.47,1.04,-0.03,-22.82,-90.3,46.27
4:10:31AM,-0.4,1.07,-0.01,-26.88,-87.22,54.53
4:10:31AM,-0.37,1.09,0.06,-33.11,-90.16,64.75
4:10:31AM,-0.34,1.08,0.14,-40.88,-93.8,77.28
4:10:31AM,-0.34,1.07,0.17,-45.36,-95.13,88.62
4:10:31AM,-0.34,1.07,0.1,-44.94,-98.49,106.05
4:10:31AM,-0.31,1.07,0.02,-36.4,-101.99,124.46
4:10:31AM,-0.32,1.1,-0.02,-44.45,-100.8,136.5
4:10:31AM,-0.38,1.08,-0.07,-59.99,-95.48,135.03
4:10:31AM,-0.47,1.02,-0.14,-61.25,-93.94,123.27
4:10:31AM,-0.54,1,-0.16,-46.41,-97.86,114.8
4:10:31AM,-0.67,1.08,-0.14,-34.93,-96.81,100.1
4:10:31AM,-0.74,1.25,-0.1,-36.12,-91.91,92.12
4:10:31AM,-0.79,1.15,-0.11,-44.24,-79.87,86.52
4:10:31AM,-0.82,1.07,-0.1,-55.3,-74.97,86.59
4:10:31AM,-0.64,1.05,0.02,-85.96,-68.39,86.87
4:10:31AM,-0.67,0.98,0.12,-126.49,-62.16,90.51
4:10:31AM,-0.57,0.86,0.21,-144.27,-44.45,89.74
4:10:31AM,-0.48,0.81,0.23,-136.36,-21.7,93.03
4:10:31AM,-0.47,0.8,0.16,-122.71,-7.77,94.5
4:10:31AM,-0.4,0.83,0.1,-114.24,3.36,96.32
4:10:31AM,-0.33,0.9,0.04,-111.09,15.19,99.05
4:10:31AM,-0.29,0.99,-0.06,-108.15,16.31,106.89
4:10:31AM,-0.25,1.06,-0.09,-97.65,4.76,121.17
4:10:31AM,-0.2,1.08,-0.02,-94.15,-1.61,127.33
4:10:31AM,-0.25,0.99,0.06,-96.39,3.36,123.55
4:10:31AM,-0.45,0.79,0.05,-97.51,7.56,109.76
4:10:31AM,-0.65,0.54,0,-79.31,-2.17,101.15
4:10:31AM,-0.63,0.44,0.03,-57.12,-14.84,100.87
4:10:31AM,-0.56,0.44,0.07,-42.91,-20.93,98.49
4:10:31AM,-0.48,0.48,0.11,-33.25,-22.89,92.4
4:10:31AM,-0.41,0.51,0.12,-21.77,-23.1,85.33
4:10:31AM,-0.4,0.54,0.09,-11.2,-25.34,78.26
4:10:31AM,-0.39,0.57,0.08,-3.43,-27.16,71.75
4:10:31AM,-0.39,0.56,0.06,5.25,-28.49,65.45
4:10:31AM,-0.42,0.53,0.05,15.47,-30.66,55.37
4:10:31AM,-0.39,0.49,0.07,24.08,-30.59,46.55
4:10:31AM,-0.31,0.43,0.11,32.97,-26.18,35.28
4:10:31AM,-0.21,0.36,0.12,43.12,-19.6,25.2
4:10:31AM,-0.17,0.33,0.12,52.99,-12.25,11.06
4:10:31AM,-0.11,0.29,0.11,65.45,-3.5,-1.68
4:10:31AM,-0.02,0.33,0.1,72.8,4.83,-10.99
4:10:31AM,-0.03,0.37,0.06,78.96,10.64,-22.54
4:10:31AM,-0.04,0.47,0.03,89.88,15.33,-35.98
4:10:31AM,-0.07,0.54,-0.02,95.55,17.43,-44.66
4:10:31AM,-0.1,0.55,-0.1,99.61,14.42,-51.24
4:10:31AM,-0.18,0.62,-0.23,107.52,14.28,-66.08
4:10:31AM,-0.21,0.63,-0.27,114.59,13.58,-78.61
4:10:31AM,-0.23,0.67,-0.3,110.6,10.71,-94.71
4:10:31AM,-0.2,0.64,-0.28,97.44,7.7,-106.4
4:10:31AM,-0.13,0.63,-0.12,76.79,1.54,-106.47
4:10:31AM,0.02,0.73,0.13,58.94,4.97,-104.37
4:10:31AM,0.16,0.93,0.27,42.77,33.25,-95.48
4:10:31AM,0.07,1.25,0.16,34.3,29.89,-36.47
4:10:31AM,-0.39,2.09,0.02,109.27,-11.76,59.43
4:10:31AM,-0.66,3.49,0,119.07,-30.73,46.83
4:10:31AM,-0.51,3.64,0.34,44.31,-36.4,-43.75
4:10:31AM,-0.22,2.1,0.81,-28,13.3,-108.64
4:10:31AM,-0.22,0.8,0.45,-26.25,69.3,-96.46
4:10:31AM,-0.44,0.53,-0.02,9.45,78.26,-88.62
4:10:31AM,-0.64,0.57,-0.24,25.2,57.82,-90.72
4:10:31AM,-0.73,0.5,-0.29,43.12,40.39,-93.24
4:10:31AM,-0.7,0.45,-0.25,66.15,23.31,-94.01
4:10:31AM,-0.67,0.41,-0.21,78.61,6.58,-86.73
4:10:31AM,-0.62,0.45,-0.21,92.75,-14.07,-87.15
4:10:31AM,-0.56,0.49,-0.24,104.93,-26.67,-80.22
4:10:31AM,-0.53,0.54,-0.25,111.86,-34.93,-63.56
4:10:31AM,-0.47,0.63,-0.25,122.22,-36.89,-44.31
4:10:31AM,-0.44,0.74,-0.24,123.48,-38.15,-25.62
4:10:31AM,-0.4,0.88,-0.22,116.48,-41.3,-14.28
4:10:31AM,-0.35,1.02,-0.16,105.21,-35.49,-9.24
4:10:31AM,-0.32,1.13,-0.17,103.81,-23.73,-0.49
4:10:31AM,-0.32,1.28,-0.19,107.8,-19.25,10.36
4:10:31AM,-0.3,1.35,-0.18,100.31,-23.03,31.01
4:10:31AM,-0.22,1.17,-0.12,49.56,-22.4,87.64
4:10:31AM,-0.19,1.14,-0.1,13.51,-20.79,101.71
4:10:31AM,-0.15,1.13,-0.06,-7.49,-0.28,75.11
4:10:31AM,-0.14,1.08,-0.06,-6.3,21.77,29.19
4:10:31AM,-0.13,1,-0.06,4.27,42,-16.87
4:10:31AM,-0.14,0.93,-0.03,14.35,61.46,-51.59
4:10:31AM,-0.16,0.88,0.02,2.24,88.9,-62.16
4:10:31AM,-0.18,0.83,0.03,-18.13,115.64,-57.12
4:10:31AM,-0.21,0.79,-0.02,-24.08,136.08,-45.57
4:10:31AM,-0.22,0.83,-0.06,-24.57,156.66,-38.64
4:10:31AM,-0.23,0.88,-0.13,-23.94,171.71,-40.6
4:10:31AM,-0.19,0.93,-0.18,-30.52,181.44,-40.39
4:10:31AM,-0.17,0.99,-0.25,-48.16,189.14,-36.61
4:10:31AM,-0.2,1,-0.37,-64.26,181.72,-36.61
4:10:31AM,-0.18,0.93,-0.5,-57.54,147.21,-36.05
4:10:31AM,-0.18,0.89,-0.75,-27.65,91.56,-33.95
4:10:31AM,-0.15,0.81,-0.89,3.01,27.09,-27.37
4:10:31AM,-0.08,0.75,-0.87,17.99,-17.71,-11.2
4:10:31AM,-0.06,0.7,-0.84,33.81,-47.95,3.43
4:10:31AM,-0.01,0.69,-0.73,52.36,-58.38,10.92
4:10:31AM,-0.1,0.73,-0.6,75.74,-65.1,9.17
4:10:31AM,-0.37,0.87,-0.19,56.35,-103.95,-9.45
4:10:31AM,-0.62,0.79,0.3,44.52,-145.81,-14.21
4:10:31AM,-0.49,0.89,0.71,19.32,-86.45,3.57
4:10:31AM,-0.51,0.94,0.61,-0.77,32.06,12.74
4:10:31AM,-0.55,0.9,0.02,-19.95,96.67,-7.35
4:10:31AM,-0.46,0.8,-0.47,-12.04,79.94,-23.38
4:10:31AM,-0.38,0.72,-0.68,14.98,36.4,-22.89
4:10:31AM,-0.37,0.86,-0.61,30.94,-10.29,-16.1
4:10:31AM,-0.32,0.94,-0.31,53.62,-34.72,-15.33
4:10:31AM,-0.23,1.01,-0.11,28.63,-35.42,-10.78
4:10:31AM,-0.18,1.09,-0.06,15.89,-27.02,-16.17
4:10:31AM,-0.1,1.08,-0.13,8.26,-16.17,-17.29
4:10:31AM,-0.08,1.05,-0.23,10.71,-12.11,-16.52
4:10:31AM,-0.1,1.04,-0.22,18.41,-15.82,-16.59
4:10:31AM,-0.13,1.05,-0.16,23.31,-16.66,-20.44
4:10:31AM,-0.15,1.09,-0.14,17.36,-20.44,-21.56
4:10:31AM,-0.13,1.07,-0.17,19.53,-18.69,-24.85
4:10:31AM,-0.14,1.04,-0.24,22.26,-35.35,-25.34
4:10:31AM,-0.2,1.04,-0.24,22.33,-21.28,-26.81
4:10:31AM,-0.25,1.05,-0.21,23.1,-20.37,-30.24
4:10:31AM,-0.31,1.07,-0.19,24.43,-19.88,-33.46
4:10:31AM,-0.36,1.09,-0.17,21.35,-14.91,-34.79
4:10:31AM,-0.4,1.08,-0.18,18.13,-5.67,-35.14
4:10:31AM,-0.42,1.1,-0.26,14.91,1.96,-31.36
4:10:31AM,-0.44,1.14,-0.33,6.72,5.81,-28.14
4:10:31AM,-0.45,1.22,-0.29,-9.8,13.86,-24.5
4:10:31AM,-0.52,1.33,-0.24,-29.68,23.73,-0.14
4:10:31AM,-0.67,1.32,-0.25,-40.18,25.27,-9.24
4:10:31AM,-0.76,1.28,-0.21,-41.3,18.97,0.28
4:10:31AM,-0.79,1.31,-0.13,-42.56,11.83,8.96
4:10:31AM,-0.76,1.35,-0.09,-45.29,-7.28,16.03
4:10:31AM,-0.63,1.34,-0.07,-49.35,-27.02,19.81
4:10:31AM,-0.48,1.26,-0.07,-51.52,-47.88,26.46
4:10:31AM,-0.33,1.2,-0.02,-55.51,-58.87,31.99
4:10:31AM,-0.2,1.12,0.01,-55.72,-57.47,36.33
4:10:31AM,-0.15,1.08,0.02,-56,-51.73,44.31
4:10:31AM,-0.13,1.07,-0.03,-52.01,-43.47,50.61
4:10:31AM,-0.17,1.09,-0.06,-47.95,-41.09,57.54
4:10:31AM,-0.21,1.12,-0.09,-45.08,-45.08,67.9
4:10:31AM,-0.25,1.14,-0.06,-42.35,-55.09,85.26
4:10:31AM,-0.23,1.14,-0.02,-43.26,-63.77,103.67
4:10:31AM,-0.24,1.14,0,-44.59,-77.35,113.26
4:10:31AM,-0.23,1.13,-0.02,-44.59,-88.9,125.72
4:10:31AM,-0.22,1.14,0,-53.06,-97.79,134.96
4:10:31AM,-0.21,1.18,0.07,-65.73,-92.4,138.67
4:10:31AM,-0.31,1.27,0.11,-87.92,-84.91,132.09
4:10:31AM,-0.43,1.38,0.15,-99.19,-75.74,119.49
4:10:31AM,-0.53,1.33,0.12,-96.95,-63.56,102.06
4:10:31AM,-0.61,1.27,0.06,-87.29,-52.15,86.94
4:10:31AM,-0.68,1.14,-0.03,-86.24,-47.32,80.01
4:10:31AM,-0.7,1.05,-0.07,-91.56,-46.69,81.27
4:10:31AM,-0.64,0.98,-0.07,-103.6,-43.82,82.6
4:10:31AM,-0.54,0.9,-0.07,-116.83,-30.03,92.12
4:10:31AM,-0.5,0.88,-0.08,-130.55,-19.25,101.78
4:10:31AM,-0.44,0.88,-0.04,-129.64,-17.57,105.84
4:10:31AM,-0.2,0.99,0.02,-136.29,-2.31,111.51
4:10:31AM,-0.05,1.03,-0.01,-138.32,-3.43,123.27
4:10:31AM,0.07,1.06,0.02,-112.42,-14.77,131.46
4:10:31AM,0.09,0.99,0.04,-105.49,-1.75,138.88
4:10:31AM,-0.08,0.97,-0.04,-107.31,12.53,144.2
4:10:31AM,-0.23,0.94,-0.14,-106.68,6.44,134.47
4:10:31AM,-0.3,0.85,-0.1,-97.3,-7.49,123.55
4:10:31AM,-0.37,0.73,-0.02,-84.98,-15.68,115.08
4:10:31AM,-0.44,0.61,0.07,-75.88,-18.2,106.82
4:10:31AM,-0.48,0.49,0.08,-67.2,-19.81,100.17
4:10:31AM,-0.44,0.45,0.05,-57.54,-25.13,96.25
4:10:31AM,-0.35,0.47,0.02,-46.13,-34.44,90.23
4:10:31AM,-0.23,0.49,-0.01,-31.5,-39.76,82.04
4:10:31AM,-0.17,0.51,-0.02,-15.96,-40.88,73.5
4:10:31AM,-0.19,0.49,-0.03,-3.85,-41.09,63.14
4:10:31AM,-0.21,0.47,-0.01,3.78,-37.24,54.04
4:10:31AM,-0.19,0.43,0.02,7.14,-30.17,45.64
4:10:31AM,-0.16,0.39,0.03,13.16,-23.17,35.07
4:10:31AM,-0.08,0.33,0.07,24.71,-14.35,23.1
4:10:31AM,-0.05,0.29,0.06,39.2,-7.21,7.14
4:10:31AM,0.02,0.26,0.07,51.31,0.98,-10.22
4:10:31AM,0.05,0.28,0.06,59.92,7,-23.94
4:10:31AM,0.03,0.34,0.03,69.44,9.24,-39.76
4:10:31AM,0.1,0.34,-0.01,84.91,6.3,-48.37
4:10:31AM,0.11,0.4,-0.02,94.85,3.08,-56
4:10:31AM,0.05,0.52,-0.1,103.74,1.05,-67.69
4:10:31AM,-0.01,0.58,-0.14,114.73,-6.16,-81.48
4:10:31AM,-0.05,0.65,-0.12,114.87,-15.4,-95.06
4:10:31AM,-0.03,0.75,-0.19,105.98,-24.57,-105
4:10:31AM,0.17,0.84,-0.17,92.89,-33.46,-104.93
4:10:31AM,0.42,1.01,0.05,62.86,-21.35,-94.85
4:10:31AM,0.32,1.23,-0.01,51.73,0.91,-54.95
4:10:31AM,-0.38,2.05,-0.04,82.81,-17.36,9.31
4:10:31AM,-0.42,3.13,0.04,138.39,-66.85,38.29
4:10:31AM,0.21,3.24,0.32,95.55,-103.67,-21.77
4:10:31AM,0.75,2.02,0.87,29.82,-16.17,-97.93
4:10:31AM,0.22,1.09,0.7,18.41,53.55,-95.2
4:10:31AM,-0.13,0.93,0.19,15.68,74.27,-101.57
4:10:31AM,-0.41,0.79,-0.13,21.7,51.73,-108.01
4:10:31AM,-0.64,0.65,-0.24,50.96,29.61,-105.07
4:10:31AM,-0.65,0.52,-0.22,84.07,5.88,-93.31
4:10:31AM,-0.58,0.49,-0.18,104.79,-15.19,-78.96
4:10:31AM,-0.56,0.58,-0.2,112.21,-23.38,-77.63
4:10:31AM,-0.52,0.66,-0.24,115.99,-31.92,-78.47
4:10:31AM,-0.48,0.76,-0.24,115.36,-36.26,-74.76
4:10:31AM,-0.42,0.8,-0.25,108.5,-42.63,-55.02
4:10:31AM,-0.34,0.87,-0.2,92.05,-52.85,-30.24
4:10:31AM,-0.22,0.92,-0.15,72.59,-55.58,-8.12
4:10:31AM,-0.1,0.98,-0.12,63.98,-42.7,6.09
4:10:31AM,-0.05,1.07,-0.11,71.47,-26.04,12.95
4:10:31AM,-0.04,1.13,-0.16,80.71,-13.79,28.21
4:10:31AM,-0.02,1.2,-0.18,78.75,-5.04,48.09
4:10:31AM,0.02,1.25,-0.17,61.74,8.61,62.3
4:10:31AM,0.04,1.3,-0.17,45.01,23.87,61.32
4:10:31AM,0.06,1.27,-0.21,34.51,29.19,42
4:10:31AM,0.05,1.19,-0.22,30.8,24.64,13.51
4:10:31AM,0.06,1.09,-0.17,32.62,16.52,-19.32
4:10:31AM,0.11,0.95,-0.11,31.08,16.1,-39.9
4:10:31AM,0.14,0.91,-0.08,32.27,25.06,-43.54
4:10:31AM,0.15,0.92,-0.08,32.9,38.01,-43.89
4:10:31AM,0.17,0.91,-0.06,23.94,59.08,-43.75
4:10:31AM,0.15,0.88,-0.06,16.66,80.78,-47.18
4:10:31AM,0.13,0.88,-0.06,10.99,105.56,-45.85
4:10:31AM,0.08,0.91,-0.09,-2.17,126.7,-42.98
4:10:31AM,-0.01,0.9,-0.15,-12.18,133.7,-39.83
4:10:31AM,-0.1,0.9,-0.22,-14.84,123.48,-35
4:10:31AM,-0.17,0.92,-0.33,-17.01,101.22,-30.66
4:10:31AM,-0.24,0.96,-0.48,-19.18,68.74,-27.23
4:10:31AM,-0.31,0.96,-0.64,-12.53,22.61,-27.16
4:10:31AM,-0.31,0.93,-0.77,1.75,-27.09,-22.19
4:10:31AM,-0.31,0.8,-0.8,18.34,-70.35,-12.53
4:10:31AM,-0.28,0.75,-0.71,40.95,-92.82,-11.48
4:10:31AM,-0.23,0.75,-0.46,49.35,-87.01,-14.98
4:10:31AM,-0.35,0.8,-0.14,36.26,-89.81,-25.83
4:10:31AM,-0.56,0.79,0.61,36.33,-103.88,-21.91
4:10:31AM,-0.22,1.04,0.8,3.78,5.39,-25.69
4:10:31AM,-0.01,1.08,0.17,-29.26,76.44,-40.74
4:10:31AM,0.12,0.91,-0.31,-28.35,104.58,-38.08
4:10:31AM,0.06,0.8,-0.65,-5.95,92.96,-34.79
4:10:31AM,-0.01,0.75,-0.72,18.41,42.35,-23.17
4:10:31AM,-0.08,0.77,-0.56,31.08,-11.9,-7.21
4:10:31AM,-0.11,0.89,-0.35,28.14,-44.38,4.34
4:10:31AM,-0.17,1.08,-0.22,28.56,-52.29,-4.27
4:10:31AM,-0.15,1.14,-0.06,23.31,-34.86,-13.72
4:10:31AM,-0.24,1.13,-0.11,10.15,-3.36,-24.15
4:10:31AM,-0.13,1.08,-0.25,-3.36,3.85,-32.76
4:10:31AM,-0.07,0.94,-0.38,-6.44,1.68,-29.68
4:10:31AM,-0.06,0.92,-0.44,5.95,-13.02,-30.31
4:10:31AM,-0.01,0.95,-0.35,18.27,-15.33,-33.6
4:10:31AM,-0.01,1.02,-0.26,19.74,-7.91,-42.63
4:10:31AM,-0.09,0.99,-0.13,19.53,-5.53,-47.39
4:10:31AM,-0.14,1.01,-0.24,19.32,-7.49,-49.42
4:10:31AM,-0.13,1.1,-0.26,17.85,-7.84,-51.94
4:10:31AM,-0.07,1.11,-0.3,16.73,-3.01,-51.17
4:10:31AM,-0.08,1.06,-0.35,21.63,-1.4,-51.31
4:10:31AM,-0.15,1.03,-0.4,27.79,-3.57,-52.22
4:10:31AM,-0.21,1.02,-0.42,29.96,-6.16,-55.02
4:10:31AM,-0.24,1.03,-0.42,31.01,-4.2,-56.91
4:10:31AM,-0.28,1.09,-0.38,31.22,1.89,-57.68
4:10:31AM,-0.31,1.18,-0.28,21.84,10.57,-54.46
4:10:31AM,-0.35,1.24,-0.21,6.16,20.3,-50.05
4:10:31AM,-0.37,1.28,-0.2,-1.33,25.9,-41.58
4:10:31AM,-0.4,1.33,-0.22,-3.5,24.78,-31.15
4:10:31AM,-0.44,1.39,-0.19,-6.09,15.4,-18.76
4:10:31AM,-0.44,1.45,-0.11,-11.06,5.6,-7.07
4:10:31AM,-0.42,1.47,-0.03,-19.88,-7,4.13
4:10:31AM,-0.34,1.43,0.04,-31.64,-20.16,13.02
4:10:31AM,-0.24,1.36,0.06,-41.37,-28.91,20.86
4:10:31AM,-0.2,1.28,0.04,-45.92,-36.4,25.2
4:10:31AM,-0.12,1.17,0.04,-51.31,-40.6,30.94
4:10:31AM,-0.06,1.1,0.01,-56.35,-41.23,38.36
4:10:31AM,0,1.06,-0.02,-60.83,-42.56,45.78
4:10:31AM,0.07,1.06,-0.05,-65.17,-46.69,54.18
4:10:31AM,0.15,1.08,-0.07,-64.26,-55.44,66.43
4:10:31AM,0.24,1.16,-0.1,-66.85,-67.62,79.73
4:10:31AM,0.39,1.14,-0.15,-65.38,-70.49,92.47
4:10:31AM,0.5,1.02,-0.16,-58.94,-56.07,107.17
4:10:31AM,0.48,1.03,-0.14,-51.59,-43.4,141.89
4:10:31AM,0.42,1.12,-0.02,-49.77,-46.13,149.38
4:10:31AM,0.25,1.27,0.1,-47.53,-39.69,153.51
4:10:31AM,-0.04,1.42,0.11,-64.82,-24.85,139.86
4:10:31AM,-0.41,1.42,0,-96.67,-18.48,123.2
4:10:31AM,-0.62,1.38,-0.1,-122.36,-29.54,105.91
4:10:31AM,-0.68,1.3,-0.15,-109.48,-38.57,96.04
4:10:31AM,-0.66,1.24,-0.13,-111.16,-32.9,93.66
4:10:31AM,-0.6,1.15,-0.08,-101.85,-19.04,96.46
4:10:31AM,-0.53,1.14,-0.02,-107.45,-9.03,101.15
4:10:31AM,-0.43,1.12,0.08,-118.51,-4.9,107.31
4:10:31AM,-0.31,1.07,0.11,-117.95,4.55,111.44
4:10:31AM,-0.27,1.05,0.09,-112.77,12.95,114.87
4:10:31AM,-0.24,1.06,0.04,-115.85,26.39,116.69
4:10:31AM,-0.16,1.07,-0.03,-128.17,48.44,122.64
4:10:31AM,-0.04,1.01,-0.15,-130.2,39.97,132.02
4:10:31AM,0.13,0.92,-0.16,-113.4,32.13,145.32
4:10:31AM,0.19,0.97,-0.06,-102.62,24.85,156.52
4:10:31AM,0.07,1.06,-0.04,-105.35,35.7,155.82
4:10:31AM,-0.18,1.05,-0.13,-104.79,27.86,141.75
4:10:31AM,-0.34,0.92,-0.17,-90.09,9.45,126.84
4:10:31AM,-0.4,0.81,-0.12,-76.23,-6.79,115.5
4:10:31AM,-0.36,0.69,-0.03,-65.59,-15.96,109.9
4:10:31AM,-0.31,0.6,0.03,-53.97,-21.21,104.37
4:10:31AM,-0.21,0.58,0.08,-43.54,-19.6,97.44
4:10:31AM,-0.15,0.58,0.05,-34.44,-16.73,85.05
4:10:31AM,-0.1,0.58,0.03,-27.37,-13.72,75.74
4:10:31AM,-0.07,0.56,0.02,-21.49,-10.36,66.01
4:10:31AM,-0.1,0.52,-0.01,-11.76,-10.15,56.98
4:10:31AM,-0.11,0.5,0.03,-2.8,-7,46.34
4:10:31AM,-0.13,0.44,0.04,3.78,-4.2,36.61
4:10:31AM,-0.12,0.37,0.04,15.4,-2.31,25.9
4:10:31AM,-0.08,0.31,0.02,25.62,1.05,14.98
4:10:31AM,-0.05,0.31,0.03,30.66,0.84,2.24
4:10:31AM,0,0.26,0,39.13,-0.14,-6.37
4:10:31AM,0.07,0.26,0,53.69,1.54,-17.29
4:10:31AM,0.1,0.27,-0.04,66.15,3.22,-25.69
4:10:31AM,0.16,0.3,-0.08,81.06,4.2,-33.88
4:10:31AM,0.19,0.4,-0.11,91.35,1.4,-39.13
4:10:31AM,0.17,0.46,-0.16,94.64,-3.36,-44.31
4:10:31AM,0.08,0.58,-0.21,102.69,-7.98,-58.52
4:10:31AM,-0.04,0.62,-0.22,109.62,-17.5,-71.33
4:10:31AM,-0.05,0.68,-0.18,105,-29.89,-85.19
4:10:31AM,0.11,0.77,-0.07,86.38,-46.62,-86.94
4:10:31AM,0.37,1.01,0.25,39.06,-37.17,-96.04
4:10:31AM,0.47,1.11,0.16,30.24,-13.51,-87.5
4:10:31AM,0.29,1.52,-0.2,85.33,-34.93,-28.63
4:10:31AM,0.19,2.68,-0.08,127.68,-100.45,40.6
4:10:31AM,0.67,3.67,0.55,91,-136.43,42.07
4:10:31AM,0.71,3.01,1.1,19.32,-41.02,-106.68
4:10:31AM,0.38,1.24,0.64,-27.23,47.18,-123.76
4:10:31AM,0.05,0.66,0.14,-2.94,70.84,-120.89
4:10:31AM,-0.17,0.6,-0.18,18.83,55.23,-121.1
4:10:31AM,-0.39,0.59,-0.28,35.07,23.03,-116.83
4:10:31AM,-0.48,0.6,-0.32,61.39,-1.75,-109.34
4:10:31AM,-0.5,0.65,-0.29,86.59,-21.49,-105.56
4:10:31AM,-0.44,0.62,-0.28,97.44,-38.99,-99.12
4:10:31AM,-0.37,0.68,-0.27,100.94,-42,-87.85
4:10:31AM,-0.31,0.82,-0.25,103.11,-29.47,-81.34
4:10:31AM,-0.27,0.9,-0.28,98.42,-18.13,-76.02
4:10:31AM,-0.22,0.96,-0.27,85.33,-18.76,-68.04
4:10:31AM,-0.12,1,-0.24,63.98,-22.75,-37.45
4:10:31AM,-0.04,1.06,-0.26,56.49,-35.28,-37.94
4:10:31AM,0.02,1.17,-0.26,70.91,-60.97,-28.35
4:10:31AM,0.09,1.32,-0.21,87.29,-81.13,-27.44
4:10:31AM,0.1,1.47,-0.17,92.05,-88.55,-39.06
4:10:31AM,0.11,1.48,-0.12,76.72,-81.27,-47.11
4:10:31AM,0.1,1.4,-0.07,47.95,-70.77,-61.6
4:10:31AM,0.08,1.15,0.03,27.02,-51.03,-74.27
4:10:31AM,0.03,0.91,0.08,26.32,-21.56,-69.44
4:10:31AM,-0.03,0.84,0.05,18.62,2.8,-65.45
4:10:31AM,-0.03,0.84,0.02,2.59,24.15,-68.74
4:10:31AM,-0.01,0.85,0.04,-9.1,51.31,-73.85
4:10:31AM,0,0.83,0.04,-11.97,85.47,-54.18
4:10:31AM,0,0.86,0.02,-11.55,115.36,-61.67
4:10:31AM,0.01,0.92,-0.03,-14.42,137.76,-60.48
4:10:31AM,0.05,0.98,-0.08,-15.12,176.82,-62.44
4:10:31AM,0.09,1.03,-0.13,-21.63,187.67,-70
4:10:31AM,0.12,0.99,-0.25,-25.48,195.65,-72.24
4:10:31AM,0.09,0.92,-0.42,-20.37,179.41,-69.3
4:10:31AM,0.04,0.88,-0.61,-13.44,129.57,-58.31
4:10:31AM,0.04,0.85,-0.76,-12.67,64.47,-41.23
4:10:31AM,0.08,0.83,-0.87,-10.5,-0.28,-24.92
4:10:31AM,0.1,0.84,-0.91,-0.14,-49.77,-13.93
4:10:31AM,0.11,0.78,-0.83,21,-77.7,-6.51
4:10:31AM,0.07,0.71,-0.67,58.31,-92.12,1.4
4:10:31AM,-0.04,0.78,-0.34,72.03,-104.09,12.11
4:10:31AM,-0.34,0.91,0.34,103.25,-131.6,20.58
4:10:31AM,-0.39,1.2,0.96,53.34,-70.49,-1.89
4:10:31AM,-0.45,1.14,0.72,9.17,80.29,-13.58
4:10:31AM,-0.4,1,-0.04,-18.48,131.88,-23.03
4:10:31AM,-0.31,0.84,-0.65,-12.95,106.82,-30.8
4:10:31AM,-0.26,0.81,-0.92,15.33,35.21,-31.92
4:10:31AM,-0.17,0.93,-0.72,20.72,-25.27,-30.73
4:10:31AM,-0.03,0.91,-0.39,28.28,-41.09,-22.19
4:10:31AM,0.12,0.93,-0.23,35.21,-34.51,-11.55
4:10:31AM,0.15,1.04,-0.25,34.37,-22.75,-15.12
4:10:31AM,0.09,1.04,-0.3,32.62,-22.19,-24.78
4:10:31AM,0.08,0.99,-0.25,28.84,-27.79,-28.35
4:10:31AM,0.1,0.99,-0.12,26.04,-23.8,-32.27
4:10:31AM,0.08,1.01,-0.03,23.87,-17.71,-37.24
4:10:31AM,0.02,1.02,-0.05,28.7,-10.01,-38.85
4:10:31AM,-0.08,1.13,-0.1,27.3,-10.5,-39.55
4:10:31AM,-0.14,1.18,-0.12,28,-9.73,-39.34
4:10:31AM,-0.21,1.29,-0.12,25.62,-10.85,-42.21
4:10:31AM,-0.21,1.31,-0.17,12.53,-11.76,-43.19
4:10:31AM,-0.14,1.26,-0.19,-1.05,-6.65,-39.41
4:10:31AM,-0.06,1.31,-0.08,-12.39,11.34,-35.77
4:10:31AM,-0.01,1.34,0.12,-26.11,41.37,-31.99
4:10:31AM,-0.02,1.34,0.07,-38.5,64.47,-22.19
4:10:31AM,-0.12,1.36,-0.1,-40.81,61.88,-0.35
4:10:31AM,-0.23,1.42,-0.16,-39.2,45.57,12.67
4:10:31AM,-0.36,1.44,-0.11,-43.26,34.44,19.46
4:10:31AM,-0.62,1.33,-0.1,-49.49,22.33,22.68
4:10:31AM,-0.52,1.18,-0.18,-54.6,-2.94,25.83
4:10:31AM,-0.35,1.07,-0.22,-58.52,-30.38,32.76
4:10:31AM,-0.16,1.02,-0.22,-60.41,-44.45,38.01
4:10:31AM,0.02,1.03,-0.22,-60.2,-47.18,44.45
4:10:31AM,0.15,1.08,-0.21,-61.74,-46.2,50.68
4:10:31AM,0.26,1.07,-0.21,-60.13,-40.81,61.67
4:10:31AM,0.32,1.05,-0.2,-57.33,-31.01,73.22
4:10:31AM,0.38,1.03,-0.18,-52.71,-12.04,80.71
4:10:31AM,0.38,1.03,-0.14,-59.57,3.5,100.31
4:10:31AM,0.36,1.1,-0.1,-71.19,6.37,115.78
4:10:31AM,0.27,1.17,-0.05,-71.82,-1.75,125.51
4:10:31AM,0.16,1.33,0.04,-78.75,-1.89,133.7
4:10:31AM,-0.08,1.43,0.03,-92.19,-2.45,129.57
4:10:31AM,-0.22,1.44,-0.02,-94.99,-1.61,130.97
4:10:31AM,-0.35,1.46,-0.07,-90.44,-1.05,127.12
4:10:31AM,-0.4,1.42,-0.1,-83.93,5.6,118.58
4:10:31AM,-0.41,1.37,-0.14,-80.85,18.62,112.63
4:10:31AM,-0.45,1.31,-0.18,-84.14,17.99,111.16
4:10:31AM,-0.4,1.23,-0.21,-80.57,23.38,111.37
4:10:31AM,-0.28,1.14,-0.19,-84,36.61,119.7
4:10:31AM,-0.15,1,-0.11,-101.29,46.13,121.24
4:10:31AM,0.03,1.05,-0.06,-121.94,66.92,127.75
4:10:31AM,0.21,1.03,-0.09,-131.04,78.05,140.28
4:10:31AM,0.29,1.04,-0.11,-122.29,51.66,149.03
4:10:31AM,0.2,1,-0.08,-114.94,52.64,151.27
4:10:31AM,-0.01,0.95,-0.14,-102.69,50.33,149.1
4:10:31AM,-0.18,0.92,-0.21,-88.27,38.99,142.52
4:10:31AM,-0.3,0.93,-0.23,-74.06,29.54,137.9
4:10:31AM,-0.43,0.85,-0.21,-67.41,19.11,132.58
4:10:31AM,-0.51,0.72,-0.17,-58.38,3.78,129.57
4:10:31AM,-0.47,0.6,-0.09,-47.53,-11.9,123.69
4:10:31AM,-0.36,0.52,-0.02,-34.58,-20.79,114.45
4:10:31AM,-0.26,0.5,0.01,-23.59,-22.89,104.51
4:10:31AM,-0.19,0.54,0,-16.24,-24.22,91.42
4:10:31AM,-0.15,0.54,-0.03,-10.71,-24.85,84
4:10:31AM,-0.1,0.53,-0.06,-0.77,-24.64,74.69
4:10:31AM,-0.06,0.55,-0.05,10.57,-21.21,63.84
4:10:31AM,-0.05,0.54,-0.05,19.25,-18.06,53.41
4:10:31AM,-0.01,0.51,-0.02,23.94,-11.69,42.28
4:10:31AM,-0.01,0.5,-0.04,33.81,-4.9,28.91
4:10:31AM,0.04,0.46,-0.05,43.19,1.33,15.82
4:10:31AM,0.08,0.41,-0.07,52.57,5.32,3.71
4:10:31AM,0.09,0.4,-0.06,59.36,9.24,-8.19
4:10:31AM,0.11,0.38,-0.04,64.89,13.93,-20.02
4:10:31AM,0.11,0.38,-0.07,67.2,16.24,-31.85
4:10:31AM,0.1,0.43,-0.12,74.06,17.36,-48.79
4:10:31AM,0.09,0.43,-0.2,79.1,14.14,-59.29
4:10:31AM,0.02,0.55,-0.28,81.34,6.02,-79.45
4:10:31AM,-0.08,0.65,-0.33,76.51,-5.81,-100.8
4:10:31AM,-0.15,0.64,-0.33,70.49,-15.89,-120.26
4:10:31AM,-0.18,0.55,-0.32,75.6,-24.15,-135.8
4:10:31AM,-0.14,0.46,-0.18,74.13,-33.39,-139.16
4:10:31AM,0.1,0.55,0.05,66.64,-17.71,-130.76
4:10:31AM,0.31,0.8,-0.02,60.34,-5.81,-115.85
4:10:31AM,0.45,1.16,-0.17,65.24,-64.89,-36.75
4:10:31AM,1.07,2.41,-0.47,171.99,-147.35,207.48
4:10:31AM,1.65,4.47,-0.28,102.13,-156.1,291.06
4:10:31AM,1.38,4.73,1.11,-21.35,-125.79,-84.84
4:10:31AM,0.95,1.56,1.31,-45.01,47.95,-206.29
4:10:31AM,0.25,0.49,0.3,-39.2,133.14,-162.68
4:10:31AM,-0.4,0.37,-0.41,-17.22,109.9,-146.16
4:10:31AM,-0.65,0.3,-0.73,11.27,53.06,-140
4:10:31AM,-0.67,0.25,-0.72,56.98,-5.04,-132.02
4:10:31AM,-0.65,0.23,-0.59,97.65,-56.91,-124.18
4:10:31AM,-0.56,0.29,-0.42,116.27,-84.07,-109.13
4:10:31AM,-0.43,0.47,-0.25,120.61,-75.18,-88.76
4:10:31AM,-0.32,0.69,-0.14,106.54,-45.08,-81.48
4:10:31AM,-0.19,0.78,-0.11,84,-7.35,-65.87
4:10:31AM,-0.12,0.91,-0.14,53.97,12.95,-36.89
4:10:31AM,0.01,1.21,-0.21,27.93,-3.57,5.25
4:10:31AM,0.19,1.38,-0.28,39.06,-49.35,20.79
4:10:31AM,0.38,1.7,-0.27,64.54,-78.47,-6.16
4:10:31AM,0.6,1.88,-0.24,77.84,-89.18,-56.28
4:10:31AM,0.58,1.78,-0.08,73.29,-82.04,-97.44
4:10:31AM,0.53,1.32,0.23,43.75,-45.57,-109.83
4:10:31AM,0.28,0.84,0.31,9.1,6.72,-89.88
4:10:31AM,0.05,0.79,0.15,-9.24,41.44,-72.45
4:10:31AM,-0.03,0.93,0.05,-35,61.04,-77.07
4:10:31AM,0,0.86,-0.02,-41.02,75.81,-77.49
4:10:31AM,0.04,0.81,-0.05,-28.07,95.13,-69.09
4:10:31AM,0.05,0.86,-0.04,-23.45,116.83,-67.13
4:10:31AM,0.07,0.92,-0.07,-28.21,138.6,-64.89
4:10:31AM,0.1,0.94,-0.13,-28.63,154.21,-60.62
4:10:31AM,0.11,0.97,-0.22,-28.49,153.23,-59.85
4:10:31AM,0.1,0.97,-0.29,-30.59,137.62,-60.48
4:10:31AM,0.08,0.94,-0.35,-38.57,122.92,-57.68
4:10:31AM,0.06,0.93,-0.43,-51.1,106.05,-52.99
4:10:31AM,0.04,0.89,-0.67,-58.03,68.11,-52.29
4:10:31AM,0.03,0.68,-1.04,-27.09,0.14,-39.48
4:10:31AM,0.06,0.55,-1.09,5.25,-66.85,-21.07
4:10:31AM,0.1,0.6,-0.94,3.43,-98.77,-4.69
4:10:31AM,0.17,0.62,-0.7,10.57,-84.35,-1.54
4:10:31AM,0.16,0.64,-0.58,60.9,-39.06,-14.98
4:10:31AM,-0.12,0.32,-0.12,229.46,-23.03,-23.45
4:10:31AM,-0.58,1.34,1.44,194.32,-34.09,-58.1
4:10:31AM,-0.38,1.37,1.05,24.99,88.97,-63
4:10:31AM,-0.12,1.11,0.09,-47.04,150.71,-59.22
4:10:31AM,-0.06,0.84,-0.59,-31.22,145.25,-72.03
4:10:31AM,-0.07,0.71,-0.87,7.84,91.84,-49.14
4:10:31AM,-0.11,0.82,-0.79,29.96,24.01,-29.4
4:10:31AM,-0.08,0.9,-0.47,29.26,-17.71,-18.34
4:10:31AM,0.01,0.92,-0.15,19.6,-22.19,-10.92
4:10:31AM,0.02,1,-0.06,16.03,-1.96,-18.34
4:10:31AM,-0.02,1.08,-0.16,8.19,11.76,-32.27
4:10:31AM,0,1.03,-0.26,4.41,17.57,-36.33
4:10:31AM,0.04,1.03,-0.28,3.01,12.53,-32.76
4:10:31AM,0.09,1.08,-0.19,1.47,8.75,-24.5
4:10:31AM,0.11,1.07,-0.18,1.54,7.98,-26.04
4:10:31AM,0.06,1.03,-0.22,6.86,4.62,-29.05
4:10:31AM,0,1.05,-0.25,4.55,1.61,-29.82
4:10:31AM,-0.06,1.05,-0.29,7.07,-2.59,-35.14
4:10:31AM,-0.07,1.12,-0.23,9.52,-0.77,-38.92
4:10:31AM,-0.05,1.23,-0.15,2.66,1.33,-39.41
4:10:31AM,-0.01,1.29,-0.11,-2.66,5.53,-40.04
4:10:31AM,0.01,1.3,-0.16,-5.74,4.9,-38.01
4:10:31AM,0.02,1.27,-0.21,-6.02,2.59,-34.65
4:10:31AM,0.05,1.28,-0.21,-9.52,6.02,-31.15
4:10:31AM,0.05,1.3,-0.1,-16.24,15.33,-27.58
4:10:31AM,0.01,1.49,0,-26.18,31.43,-22.12
4:10:31AM,-0.05,1.44,-0.01,-42.28,46.48,-13.51
4:10:31AM,-0.09,1.49,-0.04,-58.31,49.35,-2.8
4:10:31AM,-0.15,1.48,0,-68.18,42.7,9.73
4:10:31AM,-0.21,1.42,0.04,-73.92,33.95,20.79
4:10:31AM,-0.21,1.35,0.05,-77.84,20.51,32.2
4:10:31AM,-0.12,1.29,0,-84.49,3.22,42.7
4:10:31AM,0.01,1.2,-0.06,-83.65,-13.37,53.48
4:10:31AM,0.15,1.22,-0.08,-82.39,-23.59,62.02
4:10:31AM,0.24,1.22,-0.13,-81.62,-29.47,72.1
4:10:31AM,0.31,1.19,-0.13,-79.8,-34.3,82.88
4:10:31AM,0.36,1.12,-0.08,-76.16,-38.01,94.08
4:10:31AM,0.42,1.07,-0.07,-72.45,-42.14,111.58
4:10:31AM,0.45,1.09,-0.1,-76.72,-44.38,123.55
4:10:31AM,0.47,1.04,-0.1,-89.74,-41.16,131.25
4:10:31AM,0.46,0.97,-0.1,-87.71,-28.14,145.95
4:10:31AM,0.35,1.05,-0.11,-90.44,-7.35,149.1
4:10:31AM,0.1,1.2,-0.21,-85.96,4.2,136.5
4:10:31AM,-0.08,1.33,-0.27,-74.55,10.15,125.02
4:10:31AM,-0.18,1.39,-0.24,-48.3,26.04,118.58
4:10:31AM,-0.29,1.5,-0.21,-20.86,47.25,107.94
4:10:31AM,-0.41,1.54,-0.17,-17.92,55.09,100.94
4:10:31AM,-0.42,1.57,0.05,-41.51,34.23,108.43
4:10:31AM,-0.39,1.41,0.08,-66.36,22.47,117.6
4:10:31AM,-0.35,1.02,0.09,-95.06,34.16,134.54
4:10:31AM,-0.21,0.96,0,-104.16,67.9,135.52
4:10:31AM,-0.02,0.96,-0.13,-99.82,94.99,130.2
4:10:31AM,0.34,1.01,-0.28,-95.41,91.42,143.08
4:10:31AM,0.57,1.17,-0.39,-74.27,58.31,172.13
4:10:31AM,0.6,1.38,-0.22,-74.69,40.32,168.49
4:10:31AM,0.21,1.29,-0.04,-96.95,69.65,137.97
4:10:31AM,-0.16,1,-0.12,-97.86,79.59,127.26
4:10:31AM,-0.37,0.79,-0.19,-84.7,66.08,132.58
4:10:31AM,-0.47,0.74,-0.15,-68.81,48.58,134.26
4:10:31AM,-0.45,0.68,-0.07,-50.89,31.99,127.12
4:10:31AM,-0.32,0.62,0.05,-36.33,24.78,118.09
4:10:31AM,-0.23,0.57,0.09,-25.27,24.99,104.09
4:10:31AM,-0.25,0.55,0.1,-18.41,21.14,92.26
4:10:31AM,-0.29,0.48,0.06,-12.81,17.08,83.51
4:10:31AM,-0.35,0.48,0,-4.9,10.15,72.73
4:10:31AM,-0.41,0.45,-0.09,5.81,-2.31,64.54
4:10:31AM,-0.37,0.42,-0.16,20.16,-18.34,55.23
4:10:31AM,-0.24,0.4,-0.14,53.13,-26.32,46.55
4:10:31AM,-0.16,0.37,-0.13,49.42,-31.36,34.65
4:10:31AM,-0.03,0.36,-0.06,51.52,-25.97,22.19
4:10:31AM,0.01,0.33,-0.07,56.56,-20.72,12.25
4:10:31AM,0.07,0.35,-0.1,65.24,-20.23,3.78
4:10:31AM,0.18,0.39,-0.08,73.64,-18.62,-4.2
4:10:31AM,0.29,0.43,-0.1,83.37,-13.93,-14.98
4:10:31AM,0.28,0.52,-0.08,84.42,-13.79,-22.68
4:10:31AM,0.26,0.61,-0.02,79.52,-13.51,-34.44
4:10:31AM,0.22,0.61,0,70.7,-7.35,-46.97
4:10:31AM,0.11,0.61,0.05,68.25,5.25,-67.83
4:10:31AM,0,0.62,0.09,62.23,8.96,-88.97
4:10:31AM,-0.07,0.64,0.05,52.57,9.24,-109.13
4:10:31AM,-0.11,0.54,-0.11,58.66,8.12,-125.72
4:10:31AM,-0.19,0.49,-0.24,76.51,-0.56,-139.16
4:10:31AM,-0.16,0.45,-0.28,98,-16.59,-144.48
4:10:31AM,0.26,0.37,-0.15,126.42,-18.83,-126.84
4:10:31AM,1.03,0.72,-0.18,80.92,-85.26,-80.15
4:10:31AM,2.07,1.42,0.39,155.12,-192.15,276.36
4:10:31AM,1.64,6.05,-0.54,102.76,-45.57,285.74
4:10:31AM,0.85,6.02,0.5,-84.7,-145.88,-102.2
4:10:31AM,1.15,1.68,1.45,-131.04,80.43,-245.49
4:10:31AM,0.19,0.07,0.34,-56.49,133.63,-212.03
4:10:31AM,-0.21,-0.11,-0.48,17.78,89.04,-179.76
4:10:31AM,-0.47,-0.13,-0.76,57.68,19.04,-142.87
4:10:31AM,-0.59,-0.05,-0.73,91.84,-40.88,-121.73
4:10:31AM,-0.56,0.05,-0.43,101.71,-82.11,-114.1
4:10:31AM,-0.46,0.18,-0.2,98.35,-85.47,-108.57
4:10:31AM,-0.35,0.42,-0.19,95.2,-56.56,-91.84
4:10:31AM,-0.23,0.72,-0.24,72.24,-19.81,-77.35
4:10:31AM,-0.14,0.88,-0.31,55.02,-10.5,-46.34
4:10:31AM,-0.04,1.15,-0.37,54.81,-52.22,7.07
4:10:31AM,0.18,1.45,-0.33,81.06,-118.93,21.42
4:10:31AM,0.39,1.71,-0.23,97.65,-131.67,3.5
4:10:31AM,0.5,1.87,-0.1,101.85,-122.99,-52.15
4:10:31AM,0.59,1.68,0.13,106.75,-102.34,-98.42
4:10:31AM,0.47,1.24,0.23,66.22,-68.81,-95.62
4:10:31AM,0.28,0.9,0.19,25.41,-27.44,-74.97
4:10:31AM,0.09,0.87,0.08,17.36,8.12,-67.41
4:10:31AM,-0.02,0.94,-0.03,6.23,36.96,-74.06
4:10:31AM,-0.08,0.92,-0.17,-0.42,42.91,-83.16
4:10:31AM,-0.08,0.83,-0.16,0.28,39.69,-80.36
4:10:31AM,-0.07,0.8,-0.15,-2.03,35.98,-66.99
4:10:31AM,-0.04,0.99,-0.15,-17.5,31.78,-54.39
4:10:31AM,0.03,0.97,-0.13,-31.57,35,-57.47
4:10:31AM,0.13,0.98,-0.13,-43.96,50.96,-63.42
4:10:31AM,0.19,0.93,-0.17,-49.49,71.89,-63.7
4:10:31AM,0.26,0.88,-0.23,-48.3,79.87,-57.96
4:10:31AM,0.3,0.87,-0.28,-43.26,79.31,-48.37
4:10:31AM,0.33,0.92,-0.34,-40.95,76.23,-46.97
4:10:31AM,0.27,0.96,-0.47,-34.79,64.47,-59.08
4:10:31AM,0.18,0.89,-0.71,-10.85,28.56,-54.88
4:10:31AM,0.16,0.88,-0.87,14,-20.44,-48.23
4:10:31AM,0.19,0.76,-0.8,22.96,-49.42,-34.86
4:10:31AM,0.19,0.78,-0.72,27.72,-59.08,-25.9
4:10:31AM,0.18,0.79,-0.62,31.36,-56.91,-28.84
4:10:31AM,0.17,0.68,-0.53,49.63,-38.5,-25.69
4:10:31AM,0.08,0.54,-0.46,119.28,-24.29,-20.3
4:10:31AM,-0.7,1.44,1.95,266.35,-41.09,-27.93
4:10:31AM,-0.48,1.63,1.36,32.55,94.71,-71.12
4:10:31AM,-0.26,1.13,0.16,-63.91,145.18,-45.36
4:10:31AM,-0.24,0.88,-0.7,-66.71,112.14,-49.56
4:10:31AM,-0.23,0.57,-1.01,2.38,32.06,-40.18
4:10:31AM,-0.17,0.68,-0.78,29.89,-27.79,-16.45
4:10:31AM,-0.12,0.94,-0.26,30.66,-50.82,-18.69
4:10:31AM,-0.04,1.12,0.01,4.62,-31.22,-26.53
4:10:31AM,0.05,1,-0.14,-21.98,-13.23,-22.05
4:10:31AM,0.1,0.88,-0.34,-21.63,-4.48,-25.97
4:10:31AM,0.12,0.79,-0.36,-7,-1.33,-27.51
4:10:31AM,0.13,0.89,-0.23,4.55,-4.34,-26.32
4:10:31AM,0.13,1.07,-0.16,9.31,-6.72,-25.55
4:10:31AM,0.18,1.2,-0.25,1.75,-12.88,-21.42
4:10:31AM,0.19,1.13,-0.33,-6.65,-14.63,-24.85
4:10:31AM,0.16,0.94,-0.31,-7.77,-17.43,-27.51
4:10:31AM,0.16,0.83,-0.23,-6.79,-14.28,-29.4
4:10:31AM,0.14,0.83,-0.19,-4.69,-5.88,-32.83
4:10:31AM,0.15,0.93,-0.18,-1.33,1.61,-38.22
4:10:31AM,0.18,1.02,-0.21,-0.35,6.86,-42
4:10:31AM,0.18,1.06,-0.22,-1.47,12.39,-43.61
4:10:31AM,0.11,1.04,-0.23,-1.12,17.64,-45.92
4:10:31AM,-0.03,1.03,-0.32,1.89,18.76,-49.63
4:10:31AM,-0.19,1.07,-0.43,7,15.61,-53.55
4:10:31AM,-0.33,1.15,-0.47,15.19,9.59,-59.22
4:10:31AM,-0.37,1.31,-0.47,19.46,14.7,-62.65
4:10:31AM,-0.17,1.39,-0.29,2.94,39.62,-59.92
4:10:31AM,-0.18,1.19,-0.24,-5.46,51.87,-56.35
4:10:31AM,-0.29,1.15,-0.29,7.7,44.24,-51.66
4:10:31AM,-0.3,1.41,-0.28,9.24,29.82,-50.26
4:10:31AM,-0.37,1.71,-0.3,2.66,17.22,-48.37
4:10:31AM,-0.52,1.82,-0.25,-18.9,-1.33,-41.93
4:10:31AM,-0.42,1.55,-0.13,-40.39,-17.78,-32.55
4:10:31AM,-0.2,1.29,-0.03,-41.16,-24.29,-23.45
4:10:31AM,-0.1,1.27,0.03,-35.14,-21.98,-19.81
4:10:31AM,-0.12,1.33,0.05,-43.47,-22.68,-15.89
4:10:31AM,-0.15,1.3,0.06,-59.15,-27.72,-9.24
4:10:31AM,0.01,1.2,0.1,-72.1,-31.64,1.75
4:10:31AM,0.25,1.16,0.17,-83.37,-29.82,12.67
4:10:31AM,0.51,1.14,0.22,-95.41,-21.49,24.99
4:10:31AM,0.69,1.07,0.18,-100.03,-13.09,40.53
4:10:31AM,0.83,1.01,0.08,-96.67,-4.48,55.09
4:10:31AM,0.86,0.92,-0.01,-94.64,5.81,66.5
4:10:31AM,0.85,0.81,0,-92.96,22.96,74.55
4:10:31AM,0.75,0.73,0,-91.21,34.65,84.21
4:10:31AM,0.58,0.79,-0.03,-85.54,36.54,92.05
4:10:31AM,0.37,1.09,-0.09,-72.94,36.26,97.3
4:10:31AM,0.11,1.23,-0.29,-55.02,30.1,95.97
4:10:31AM,-0.13,1.34,-0.47,-42.21,18.13,91.84
4:10:31AM,-0.32,1.22,-0.39,-49.77,29.54,84.35
4:10:31AM,-0.42,1.06,-0.25,-55.16,59.99,79.94
4:10:31AM,-0.56,0.96,-0.19,-54.04,89.67,76.86
4:10:31AM,-0.71,0.92,-0.21,-58.94,106.75,70.49
4:10:31AM,-0.79,0.91,-0.26,-65.38,108.99,64.96
4:10:31AM,-0.71,0.83,-0.29,-69.93,101.22,72.52
4:10:31AM,-0.48,0.82,-0.34,-61.81,83.09,80.36
4:10:31AM,-0.21,0.92,-0.29,-64.05,59.29,70.42
4:10:31AM,0.03,0.87,-0.25,-66.64,49.28,70.07
4:10:31AM,0.19,0.91,-0.27,-63,34.44,90.58
4:10:31AM,0.27,0.98,-0.3,-56.21,17.15,93.94
4:10:31AM,0.4,1,-0.3,-36.89,18.76,95.27
4:10:31AM,0.53,1.1,-0.34,-12.04,21.35,103.25
4:10:31AM,0.57,1.22,-0.36,1.26,10.29,117.39
4:10:31AM,0.48,1.33,-0.24,9.03,13.65,124.95
4:10:31AM,0.26,1.27,-0.04,-24.78,53.76,131.6
4:10:31AM,-0.01,1.07,-0.06,-52.99,84.77,134.12
4:10:31AM,-0.16,0.93,-0.13,-55.51,96.67,128.52
4:10:31AM,-0.14,0.85,-0.12,-45.71,110.74,118.93
4:10:31AM,-0.18,0.8,-0.16,-40.88,122.22,107.24
4:10:31AM,-0.27,0.71,-0.17,-34.44,116.55,98.63
4:10:31AM,-0.31,0.51,-0.18,-26.32,107.87,86.52
4:10:31AM,-0.32,0.55,-0.17,-13.44,98.21,75.6
4:10:31AM,-0.33,0.53,-0.16,-2.52,87.85,64.61
4:10:31AM,-0.36,0.49,-0.18,6.72,69.72,55.65
4:10:31AM,-0.39,0.44,-0.18,17.57,52.92,47.53
4:10:31AM,-0.41,0.4,-0.17,29.05,39.06,37.03
4:10:31AM,-0.44,0.35,-0.16,46.76,29.05,27.58
4:10:31AM,-0.47,0.36,-0.13,58.59,21.35,20.58
4:10:31AM,-0.52,0.4,-0.1,65.24,14.91,11.27
4:10:31AM,-0.55,0.44,-0.06,67.55,9.94,4.13
4:10:31AM,-0.55,0.47,0.02,67.69,9.24,-4.48
4:10:31AM,-0.54,0.51,0.09,63.91,12.6,-15.19
4:10:31AM,-0.48,0.54,0.17,58.31,19.25,-29.89
4:10:31AM,-0.38,0.57,0.26,48.58,32.69,-41.86
4:10:31AM,-0.27,0.64,0.41,37.87,52.78,-55.65
4:10:31AM,0,0.78,0.67,25.06,91.07,-70.35
4:10:31AM,0.07,1.05,1.01,-1.54,124.18,-80.71
4:10:31AM,0.33,1.44,1.27,-47.6,122.64,-71.89
4:10:31AM,1.2,1.66,1.01,-86.17,44.24,1.61
4:10:31AM,2.48,1.71,-0.21,54.39,95.69,33.46
4:10:31AM,2.55,2.06,-0.71,19.39,238.14,12.04
4:10:31AM,2.17,2.08,-0.58,-5.81,111.58,-8.4
4:10:31AM,1.67,1.66,0.13,-1.89,58.87,-29.89
4:10:31AM,0.93,0.89,-0.03,-25.41,83.93,-26.39
4:10:31AM,0.62,0.49,-0.53,-28.07,90.16,-2.8
4:10:31AM,0.43,0.54,-0.67,14.91,84.91,9.38
4:10:31AM,0.03,0.89,-0.83,83.86,58.03,22.68
4:10:31AM,-0.48,1.26,-0.54,131.67,-27.09,32.69
4:10:31AM,-1.31,2.95,2.78,97.51,47.11,-18.76
4:10:31AM,-1.72,2.23,1.39,-137.27,99.82,-74.48
4:10:31AM,-1.21,0.9,-0.73,-70.14,-30.73,-19.95
4:10:31AM,-0.52,0.92,-0.74,12.74,-56.77,11.69
4:10:31AM,-0.41,0.81,-0.58,28.63,-60.13,0.56
4:10:31AM,-0.43,0.66,-0.47,33.39,-72.73,-13.02
4:10:31AM,-0.53,0.54,-0.51,42.42,-113.33,-22.61
4:10:31AM,-0.57,0.6,-0.41,51.1,-158.69,-31.64
4:10:31AM,-0.49,0.7,-0.26,62.93,-178.08,-29.68
4:10:31AM,-0.4,0.94,-0.15,75.81,-165.69,-11.2
4:10:31AM,-0.27,1.2,-0.08,63.84,-117.25,-2.17
4:10:31AM,-0.22,1.39,-0.12,19.46,-39.48,-2.38
4:10:31AM,-0.14,1.49,-0.18,-44.73,13.37,-17.29
4:10:31AM,-0.05,1.35,-0.23,-88.62,69.16,-36.89
4:10:31AM,-0.01,1.14,-0.29,-98.35,112.84,-43.75
4:10:31AM,0.02,0.99,-0.36,-86.31,134.05,-39.55
4:10:31AM,0.07,0.92,-0.37,-68.04,146.16,-35.7
4:10:31AM,0.11,1.03,-0.33,-60.06,150.15,-41.23
4:10:31AM,0.15,1.15,-0.27,-68.18,154.98,-61.6
4:10:31AM,0.07,1.09,-0.39,-56.63,145.67,-87.01
4:10:31AM,0.11,1.05,-0.4,-39.41,131.95,-93.66
4:10:31AM,0.22,0.91,-0.43,-14.91,130.62,-83.23
4:10:31AM,0.31,0.86,-0.42,30.59,135.59,-79.45
4:10:31AM,0.17,0.71,-0.77,65.73,89.04,-69.16
4:10:31AM,0.24,0.67,-0.72,86.73,27.51,-48.3
4:10:31AM,0.23,0.71,-0.68,76.02,0.21,-24.5
4:10:31AM,0.11,0.82,-0.64,41.72,-35.28,-28.98
4:10:31AM,0.1,0.73,-0.46,59.64,-55.93,-27.44
4:10:31AM,0.04,0.78,-0.31,98.35,-55.3,-19.39
4:10:31AM,-0.06,0.86,-0.2,143.01,-38.01,-21.77
4:10:31AM,-0.15,0.9,0.21,204.54,2.17,-31.85
4:10:31AM,-0.37,1.19,4.04,231.42,222.6,-34.44
4:10:31AM,-1.14,1.56,0.64,-19.95,180.81,-80.71
4:10:31AM,-0.49,1.1,-0.28,-71.19,112.56,-77.28
4:10:31AM,-0.08,0.8,-0.64,-66.99,69.93,-68.6
4:10:31AM,0.1,0.73,-0.72,-38.64,44.17,-67.55
4:10:31AM,0.3,0.76,-0.55,-3.64,49.07,-60.2
4:10:31AM,0.4,0.74,-0.32,24.85,58.94,-58.24
4:10:31AM,0.26,0.74,-0.02,44.45,58.52,-50.12
4:10:31AM,0.09,0.87,0.12,30.87,70.84,-46.76
4:10:31AM,-0.06,0.93,0,13.72,82.67,-52.71
4:10:31AM,-0.13,0.88,-0.16,12.6,86.87,-57.96
4:10:31AM,-0.2,0.92,-0.27,18.97,77.42,-56.98
4:10:31AM,-0.21,0.98,-0.28,23.94,64.89,-57.82
4:10:31AM,-0.19,0.98,-0.22,23.03,59.15,-57.82
4:10:31AM,-0.13,0.99,-0.21,14.56,56.21,-54.18
4:10:31AM,-0.09,1.01,-0.27,8.26,48.93,-55.23
4:10:31AM,-0.04,1.01,-0.27,10.92,39.55,-55.3
4:10:31AM,0,1.03,-0.23,16.1,35.84,-56.56
4:10:31AM,0.01,1.07,-0.25,15.54,31.43,-53.83
4:10:31AM,0.02,1.11,-0.24,10.57,28.91,-57.33
4:10:31AM,0.04,1.07,-0.27,2.59,21.98,-56.07
4:10:31AM,0.13,1.06,-0.27,0.7,18.62,-53.27
4:10:31AM,0.28,1.08,-0.19,-2.94,21.07,-49.91
4:10:31AM,0.38,1.12,-0.04,-8.26,25.97,-49.56
4:10:31AM,0.44,1.13,-0.01,-12.18,34.37,-49.07
4:10:31AM,0.41,1.18,0,-17.85,34.93,-47.18
4:10:31AM,0.4,1.23,-0.04,-26.18,33.46,-44.1
4:10:31AM,0.43,1.22,-0.07,-37.31,40.39,-44.03
4:10:31AM,0.44,1.16,-0.03,-44.87,50.33,-40.6
4:10:31AM,0.37,1.21,0.01,-50.12,52.29,-37.17
4:10:31AM,0.38,1.29,0,-56.35,55.02,-34.3
4:10:31AM,0.42,1.37,0.02,-63.7,57.47,-29.75
4:10:31AM,0.42,1.39,0.03,-85.4,60.48,-24.99
4:10:31AM,0.43,1.25,-0.08,-102.48,67.48,-19.53
4:10:31AM,0.55,1.07,-0.15,-99.33,81.34,-12.39
4:10:31AM,0.68,1.07,-0.09,-89.11,107.52,-1.96
4:10:31AM,0.65,1.14,-0.12,-92.75,133.14,10.29
4:10:31AM,0.51,1.07,-0.3,-108.85,151.06,25.55
4:10:31AM,0.33,0.91,-0.53,-109.55,150.71,44.38
4:10:31AM,0.27,1.09,-0.65,-86.38,152.32,52.85
4:10:31AM,0.15,1.45,-0.76,-70.07,163.73,63.98
4:10:31AM,-0.08,1.72,-0.83,-63.7,165.41,74.55
4:10:31AM,-0.36,1.89,-0.72,-57.89,146.72,77.14
4:10:31AM,-0.37,1.89,-0.49,-66.92,143.5,73.64
4:10:31AM,-0.27,1.66,-0.41,-80.85,145.74,77.35
4:10:31AM,-0.16,1.46,-0.4,-86.24,134.4,80.5
4:10:31AM,-0.05,1.31,-0.37,-69.02,119,76.02
4:10:31AM,0.03,1.28,-0.36,-57.96,109.06,79.1
4:10:31AM,0.02,1.3,-0.42,-60.55,107.66,86.38
4:10:31AM,0,1.31,-0.44,-71.54,112.42,92.75
4:10:31AM,-0.07,1.33,-0.46,-85.82,118.16,94.64
4:10:31AM,-0.09,1.33,-0.44,-102.13,118.23,91.07
4:10:31AM,-0.05,1.25,-0.4,-117.95,132.23,84.84
4:10:31AM,-0.03,1.14,-0.42,-115.5,153.86,85.54
4:10:31AM,0.02,1.13,-0.43,-115.64,181.93,84.28
4:10:31AM,0.15,0.98,-0.54,-107.52,221.83,80.71
4:10:31AM,0.21,0.94,-0.78,-66.64,235.9,96.04
4:10:31AM,0.17,1.12,-0.92,-68.88,202.3,102.41
4:10:31AM,0.29,1.12,-0.92,-65.31,175.21,98.14
4:10:31AM,0.4,0.95,-0.98,-27.58,179.13,114.24
4:10:31AM,0.44,1.13,-1.03,-32.13,197.82,125.86
4:10:31AM,0.49,1.11,-1.13,-39.9,172.41,151.76
4:10:31AM,0.47,1.27,-0.71,-21.7,126.98,195.37
4:10:31AM,0.34,1.39,-0.41,-43.19,163.66,174.72
4:10:31AM,0.14,1.31,-0.53,-57.82,205.66,174.79
4:10:31AM,-0.02,1.27,-0.74,-66.08,211.12,179.55
4:10:31AM,-0.14,1.24,-0.83,-64.19,187.74,178.71
4:10:31AM,-0.26,1.12,-0.85,-51.59,160.65,179.34
4:10:31AM,-0.34,1,-0.8,-32.55,133.07,180.81
4:10:31AM,-0.35,0.9,-0.71,3.22,110.67,181.51
4:10:31AM,-0.37,0.9,-0.56,25.34,105,181.02
4:10:31AM,-0.39,0.96,-0.49,34.02,109.83,181.44
4:10:31AM,-0.4,1.05,-0.5,33.11,111.51,178.15
4:10:31AM,-0.39,1.16,-0.56,27.79,112.56,175.14
4:10:31AM,-0.35,1.35,-0.58,19.95,110.25,171.29
4:10:31AM,-0.17,1.26,-0.47,6.44,91.77,166.74
4:10:31AM,0.14,0.95,-0.14,-14.21,68.32,154
4:10:31AM,0.34,0.6,0.08,-4.13,79.52,142.59
4:10:31AM,0.14,0.5,0.15,15.12,106.96,128.52
4:10:31AM,0.01,0.49,0.17,23.31,120.4,114.03
4:10:31AM,-0.13,0.48,0.25,24.22,134.75,101.92
4:10:31AM,-0.24,0.48,0.28,28.21,144.83,92.75
4:10:31AM,-0.3,0.45,0.26,36.19,140.7,83.86
4:10:31AM,-0.27,0.4,0.2,47.04,122.15,75.88
4:10:31AM,-0.18,0.39,0.13,61.53,98,66.36
4:10:31AM,-0.03,0.49,0.04,71.33,75.81,54.25
4:10:31AM,0.2,0.59,-0.06,74.62,61.04,39.97
4:10:31AM,0.45,0.57,-0.13,80.08,58.24,26.95
4:10:31AM,0.61,0.56,-0.17,89.18,62.93,16.8
4:10:31AM,0.65,0.6,-0.23,101.78,72.87,7.07
4:10:31AM,0.39,0.71,-0.27,107.31,81.06,-4.97
4:10:31AM,0.32,0.75,-0.22,105.07,79.66,-17.71
4:10:31AM,0.2,0.7,-0.07,102.41,80.01,-28.63
4:10:31AM,0.09,0.67,0.08,97.37,80.08,-40.88
4:10:31AM,-0.01,0.67,0.13,87.85,74.9,-54.6
4:10:31AM,-0.01,0.66,0.11,74.76,69.65,-70.07
4:10:31AM,0.02,0.7,0.79,49.91,62.16,-69.86
4:10:31AM,0.43,1.13,2.24,-64.19,55.3,-40.25
4:10:31AM,1.88,0.39,0.45,-21.14,-1.47,67.62
4:10:31AM,2.99,3.18,-1.56,291.83,225.82,127.61
4:10:31AM,-0.28,5.98,-0.51,3.01,-22.54,-30.52
4:10:31AM,-0.48,2.88,1.12,-64.89,-51.24,-118.37
4:10:31AM,0.06,0.84,0.5,-57.12,73.99,-111.09
4:10:31AM,-0.08,0.04,-0.24,-5.67,113.68,-104.23
4:10:31AM,-0.62,-0.31,-0.39,90.3,36.82,-111.3
4:10:31AM,-0.65,-0.28,-0.42,177.87,-55.37,-131.67
4:10:31AM,-0.56,-0.18,-0.19,162.26,-106.89,-143.92
4:10:31AM,-0.46,-0.23,0.25,114.31,-105.77,-142.8
4:10:31AM,-0.41,-0.15,0.19,93.66,-67.06,-121.1
4:10:31AM,-0.4,0.16,-0.09,105.28,-33.6,-103.39
4:10:31AM,-0.28,0.52,-0.27,106.89,-27.93,-86.17
4:10:31AM,-0.03,0.85,-0.32,66.43,-46.27,-20.09
4:10:31AM,0.2,1.3,-0.34,68.39,-33.46,38.15
4:10:31AM,0.16,2.11,-0.47,113.19,-61.95,76.72
4:10:31AM,0.4,2.67,-0.28,73.64,-94.08,39.06
4:10:31AM,0.78,2.79,0.02,83.3,-56.28,-59.22
4:10:31AM,0.79,2.33,0.11,79.17,-32.41,-129.15
4:10:31AM,0.53,1.38,0.28,6.37,5.81,-122.85
4:10:31AM,0.16,0.88,0.15,17.43,55.44,-94.99
4:10:31AM,-0.15,0.87,-0.11,39.2,77.98,-79.87
4:10:31AM,-0.3,0.96,-0.27,45.78,71.4,-85.61
4:10:31AM,-0.31,0.92,-0.3,42.14,48.16,-98.14
4:10:31AM,-0.27,0.8,-0.22,39.34,28.98,-99.54
4:10:31AM,-0.23,0.72,-0.17,44.8,20.72,-81.55
4:10:31AM,-0.22,0.81,-0.18,55.79,11.13,-65.45
4:10:31AM,-0.21,0.96,-0.18,53.13,2.03,-62.79
4:10:31AM,-0.15,1.03,-0.19,46.34,17.5,-63.07
4:10:31AM,-0.07,1.06,-0.21,49.14,7.42,-63.49
4:10:31AM,-0.02,1.13,-0.23,50.68,13.02,-67.97
4:10:31AM,0.04,1.12,-0.22,43.96,25.9,-73.71
4:10:31AM,0.06,1.06,-0.18,28.28,43.68,-76.72
4:10:31AM,0.08,0.99,-0.13,22.19,69.79,-75.88
4:10:31AM,0.03,0.99,-0.08,18.97,90.09,-76.58
4:10:31AM,-0.09,0.98,-0.04,14.35,85.12,-78.61
4:10:31AM,-0.18,0.92,-0.02,17.36,60.9,-73.15
4:10:31AM,-0.16,0.92,-0.01,16.17,48.65,-64.47
4:10:31AM,-0.12,0.95,-0.01,12.46,66.99,-70.98
4:10:31AM,-0.02,1.03,-0.06,4.2,87.57,-72.8
4:10:12AM,-0.73,0.31,-0.32,-8.47,-33.6,-10.71
4:10:12AM,-0.69,0.27,-0.31,0.35,-16.52,-3.43
4:10:12AM,-0.73,0.26,-0.36,11.34,-4.48,-2.66
4:10:12AM,-0.78,0.31,-0.41,16.52,0.7,-6.51
4:10:12AM,-0.81,0.35,-0.46,14.56,5.18,-7.98
4:10:12AM,-0.81,0.37,-0.49,14.07,6.65,-1.33
4:10:12AM,-0.82,0.41,-0.51,12.53,6.86,2.52
4:10:12AM,-0.79,0.37,-0.53,15.19,2.66,2.73
4:10:12AM,-0.71,0.28,-0.54,25.9,-0.98,3.08
4:10:12AM,-0.66,0.22,-0.53,38.29,-1.96,5.88
4:10:12AM,-0.65,0.22,-0.51,48.86,0.21,7.7
4:10:12AM,-0.7,0.26,-0.47,43.33,5.67,-3.01
4:10:12AM,-0.79,0.29,-0.45,36.54,18.48,-14.35
4:10:12AM,-0.89,0.31,-0.49,33.53,33.18,-20.79
4:10:12AM,-0.94,0.31,-0.56,35.35,39.41,-19.18
4:10:12AM,-0.93,0.31,-0.6,30.87,31.36,-12.74
4:10:12AM,-0.87,0.14,-0.63,22.54,16.59,-6.23
4:10:12AM,-0.84,0.2,-0.63,19.11,2.52,-2.52
4:10:12AM,-0.81,0.23,-0.61,18.9,-2.17,-2.52
4:10:12AM,-0.84,0.26,-0.57,8.26,4.06,-7.7
4:10:12AM,-0.92,0.26,-0.56,0.7,12.04,-12.53
4:10:12AM,-1.02,0.26,-0.58,0.35,12.67,-10.92
4:10:12AM,-1.03,0.26,-0.6,1.89,5.95,-1.33
4:10:12AM,-1,0.29,-0.61,8.26,-0.35,2.1
4:10:12AM,-0.98,0.29,-0.62,12.6,-4.55,-0.7
4:10:12AM,-0.95,0.28,-0.67,14.63,-8.89,-0.7
4:10:12AM,-0.91,0.32,-0.69,12.67,-12.32,-2.1
4:10:12AM,-0.89,0.36,-0.68,6.02,-18.41,-5.67
4:10:12AM,-0.88,0.39,-0.65,-0.21,-26.18,-10.99
4:10:12AM,-0.88,0.42,-0.59,-5.67,-33.04,-10.92
4:10:12AM,-0.9,0.44,-0.52,-11.13,-35.98,-12.11
4:10:12AM,-0.94,0.45,-0.49,-15.26,-36.96,-16.59
4:10:12AM,-0.95,0.38,-0.45,-9.66,-30.73,-19.53
4:10:12AM,-0.97,0.33,-0.43,-4.76,-22.96,-23.52
4:10:12AM,-1,0.3,-0.44,-5.6,-13.37,-23.31
4:10:12AM,-1.07,0.29,-0.47,-9.24,-5.11,-24.43
4:10:12AM,-1.18,0.33,-0.51,-15.12,-4.2,-31.36
4:10:12AM,-1.24,0.33,-0.56,-16.03,-10.85,-35.91
4:10:12AM,-1.22,0.28,-0.54,-11.34,-21.28,-34.23
4:10:12AM,-1.12,0.25,-0.49,-8.82,-28.77,-24.29
4:10:12AM,-1.05,0.26,-0.4,-8.54,-29.47,-13.44
4:10:12AM,-1.04,0.35,-0.33,-9.8,-28.91,-9.17
4:10:12AM,-1.03,0.37,-0.3,-14.84,-32.27,-5.11
4:10:12AM,-0.99,0.33,-0.3,-16.87,-40.46,-2.24
4:10:12AM,-0.92,0.28,-0.31,-12.53,-43.47,2.73
4:10:12AM,-0.87,0.24,-0.29,-7.42,-41.37,9.8
4:10:12AM,-0.88,0.25,-0.27,-5.25,-35.98,16.1
4:10:12AM,-0.9,0.24,-0.28,-4.27,-28.49,20.65
4:10:12AM,-0.93,0.22,-0.33,0.21,-23.03,23.31
4:10:12AM,-0.96,0.19,-0.4,6.09,-23.87,26.11
4:10:12AM,-0.96,0.15,-0.48,12.53,-31.08,31.5
4:10:12AM,-0.93,0.1,-0.49,23.66,-40.39,43.82
4:10:12AM,-0.89,0.14,-0.44,25.9,-47.81,58.03
4:10:12AM,-0.83,0.22,-0.39,26.25,-50.05,66.01
4:10:12AM,-0.79,0.3,-0.33,26.95,-49.49,76.86
4:10:12AM,-0.81,0.4,-0.29,25.97,-48.09,86.8
4:10:12AM,-0.83,0.47,-0.26,24.5,-45.78,96.95
4:10:12AM,-0.84,0.5,-0.23,25.48,-41.86,106.4
4:10:12AM,-0.85,0.52,-0.22,30.31,-36.61,115.57
4:10:12AM,-0.86,0.53,-0.22,30.94,-34.65,124.46
4:10:12AM,-0.88,0.53,-0.22,32.41,-33.11,130.41
4:10:12AM,-0.91,0.53,-0.21,33.67,-27.72,133.07
4:10:12AM,-0.96,0.51,-0.2,31.5,-19.74,133.91
4:10:12AM,-1,0.48,-0.25,34.58,-13.23,135.66
4:10:12AM,-1.03,0.43,-0.34,41.72,-9.73,137.13
4:10:12AM,-1.04,0.4,-0.43,46.13,-18.83,140.77
4:10:12AM,-1.07,0.38,-0.47,45.08,-38.22,146.09
4:10:12AM,-1.12,0.34,-0.42,46.83,-59.99,151.69
4:10:12AM,-1.18,0.35,-0.34,46.76,-93.87,154.84
4:10:12AM,-1.17,0.35,-0.3,42.21,-120.61,156.59
4:10:12AM,-1.06,0.35,-0.24,40.04,-128.1,161.42
4:10:12AM,-0.95,0.46,-0.2,17.71,-117.67,163.8
4:10:12AM,-0.86,0.5,-0.23,-13.58,-106.12,164.29
4:10:12AM,-0.84,0.49,-0.3,-39.13,-97.86,158.62
4:10:12AM,-0.85,0.5,-0.34,-47.53,-103.53,155.05
4:10:12AM,-0.87,0.55,-0.33,-64.19,-118.44,158.9
4:10:12AM,-0.85,0.64,-0.21,-85.05,-125.86,162.05
4:10:12AM,-0.73,0.63,-0.12,-120.61,-114.52,179.9
4:10:12AM,-0.62,0.6,-0.1,-149.73,-96.11,208.81
4:10:12AM,-0.61,0.65,-0.09,-173.88,-79.73,221.76
4:10:12AM,-0.63,0.7,-0.09,-177.1,-80.71,220.36
4:10:12AM,-0.58,0.67,-0.08,-193.34,-88.13,207.69
4:10:12AM,-0.59,0.68,-0.05,-177.52,-85.33,179.13
4:10:12AM,-0.57,0.7,0.06,-133.7,-72.94,149.03
4:10:12AM,-0.58,0.8,0.18,-97.58,-56.21,122.85
4:10:12AM,-0.55,0.75,0.18,-70.7,-43.68,112.21
4:10:12AM,-0.54,0.6,0.07,-65.31,-32.2,112.07
4:10:12AM,-0.57,0.54,-0.04,-57.82,-29.75,112.42
4:10:12AM,-0.55,0.58,-0.03,-44.03,-32.9,108.36
4:10:12AM,-0.49,0.7,0.06,-37.73,-32.13,103.39
4:10:12AM,-0.48,0.79,0.1,-40.81,-31.22,95.9
4:10:12AM,-0.44,0.79,0.14,-42.42,-31.85,91.28
4:10:12AM,-0.36,0.81,0.15,-43.82,-24.92,83.09
4:10:12AM,-0.39,0.8,0.1,-40.11,-18.69,77.35
4:10:12AM,-0.46,0.85,0.07,-40.39,-18.9,72.66
4:10:12AM,-0.45,0.8,0.09,-38.99,-21.84,69.37
4:10:12AM,-0.42,0.76,0.14,-35.77,-19.53,64.96
4:10:12AM,-0.41,0.72,0.15,-32.97,-15.82,59.64
4:10:12AM,-0.42,0.73,0.11,-30.38,-16.31,56.91
4:10:12AM,-0.4,0.73,0.1,-27.09,-18.06,54.53
4:10:12AM,-0.36,0.73,0.11,-22.05,-16.8,52.29
4:10:12AM,-0.35,0.71,0.11,-13.37,-15.61,48.16
4:10:12AM,-0.35,0.75,0.11,-10.78,-15.19,44.24
4:10:12AM,-0.31,0.75,0.13,-10.08,-15.96,40.32
4:10:12AM,-0.27,0.75,0.17,-10.22,-13.51,36.89
4:10:12AM,-0.25,0.74,0.2,-10.15,-10.5,33.6
4:10:12AM,-0.25,0.74,0.19,-9.03,-7.07,29.61
4:10:12AM,-0.25,0.75,0.17,-6.23,-3.92,25.55
4:10:12AM,-0.25,0.8,0.15,-6.23,-1.54,21.49
4:10:12AM,-0.23,0.8,0.17,-6.86,0.42,17.99
4:10:12AM,-0.21,0.82,0.23,-9.66,2.94,14.98
4:10:12AM,-0.22,0.8,0.26,-12.18,5.53,12.6
4:10:12AM,-0.22,0.79,0.22,-10.85,7.91,10.78
4:10:12AM,-0.21,0.77,0.19,-4.83,11.06,7
4:10:12AM,-0.23,0.78,0.19,-2.1,12.88,3.5
4:10:12AM,-0.26,0.76,0.19,-2.03,12.11,0.56
4:10:12AM,-0.27,0.7,0.19,-0.28,10.43,-2.66
4:10:12AM,-0.25,0.67,0.19,6.02,10.08,-5.6
4:10:12AM,-0.22,0.66,0.2,13.16,10.5,-9.45
4:10:12AM,-0.2,0.67,0.2,20.65,11.2,-11.27
4:10:12AM,-0.21,0.73,0.2,23.1,12.04,-14
4:10:12AM,-0.23,0.77,0.18,24.08,12.74,-16.1
4:10:12AM,-0.25,0.76,0.15,27.72,13.37,-17.22
4:10:12AM,-0.27,0.77,0.17,31.36,12.11,-18.55
4:10:12AM,-0.27,0.79,0.21,29.82,11.2,-20.72
4:10:12AM,-0.25,0.77,0.22,27.02,12.95,-24.64
4:10:12AM,-0.25,0.75,0.17,28.91,16.24,-29.33
4:10:12AM,-0.23,0.75,0.11,35.14,19.67,-34.79
4:10:12AM,-0.21,0.76,0.09,41.23,23.31,-39.55
4:10:12AM,-0.21,0.74,0.1,46.34,25.27,-43.33
4:10:12AM,-0.2,0.72,0.13,51.59,28.21,-46.06
4:10:12AM,-0.17,0.72,0.22,47.25,22.19,-42.77
4:10:12AM,-0.1,0.78,0.46,26.74,9.03,-30.52
4:10:12AM,-0.05,0.85,0.52,23.24,19.88,-14.63
4:10:12AM,-0.09,0.95,0.32,43.05,48.79,-0.14
4:10:12AM,-0.3,1.19,0.03,50.96,62.44,0.77
4:10:12AM,-0.46,1.28,-0.13,45.15,54.81,1.96
4:10:12AM,-0.66,1.34,-0.31,44.38,22.96,3.36
4:10:12AM,-0.78,1.43,-0.23,55.86,-4.76,-11.13
4:10:12AM,-0.62,1.32,0.01,53.34,-12.18,-22.47
4:10:12AM,-0.51,1.17,0.16,46.48,-27.16,-23.38
4:10:12AM,-0.31,1.1,0.27,38.78,-28.07,-18.9
4:10:12AM,-0.19,1.01,0.43,23.73,-3.64,-23.8
4:10:12AM,-0.28,0.78,0.41,6.51,24.78,-30.94
4:10:12AM,-0.45,0.62,0.22,35,23.24,-34.37
4:10:12AM,-0.43,0.73,0.11,52.78,14.14,-24.15
4:10:12AM,-0.39,0.94,0.04,48.09,14.56,-15.26
4:10:12AM,-0.44,1.1,0,39.13,12.95,-14.07
4:10:12AM,-0.48,1.16,0.01,23.87,17.29,-13.37
4:10:12AM,-0.53,1.18,-0.04,15.82,25.76,-18.76
4:10:12AM,-0.54,1.09,-0.02,16.59,24.99,-28
4:10:12AM,-0.46,0.99,0.07,14.35,21.84,-30.38
4:10:12AM,-0.43,0.91,0.11,10.92,26.25,-32.62
4:10:12AM,-0.47,0.87,0.08,8.4,26.95,-32.9
4:10:12AM,-0.52,0.85,0.02,4.2,26.81,-31.36
4:10:12AM,-0.59,0.82,-0.04,3.01,26.6,-31.57
4:10:12AM,-0.62,0.79,-0.06,6.02,23.87,-32.62
4:10:12AM,-0.59,0.75,-0.06,12.6,20.93,-32.27
4:10:12AM,-0.56,0.75,-0.02,22.33,18.34,-32.34
4:10:12AM,-0.54,0.77,-0.01,34.93,18.9,-33.11
4:10:12AM,-0.55,0.79,-0.01,43.12,17.01,-34.44
4:10:12AM,-0.57,0.82,0,45.01,16.66,-37.73
4:10:12AM,-0.57,0.83,-0.04,44.38,21,-39.62
4:10:12AM,-0.55,0.86,-0.09,38.71,18.48,-36.47
4:10:12AM,-0.53,0.9,-0.1,34.86,14.14,-31.5
4:10:12AM,-0.52,0.96,-0.12,38.43,8.33,-28.56
4:10:12AM,-0.54,1.01,-0.1,45.85,8.68,-28.14
4:10:12AM,-0.58,1.04,-0.08,48.79,14,-35.14
4:10:12AM,-0.55,1.01,-0.08,47.04,16.8,-42.35
4:10:12AM,-0.53,0.93,-0.09,38.85,22.19,-45.92
4:10:12AM,-0.53,0.86,-0.12,36.89,28.28,-49.98
4:10:12AM,-0.61,0.83,-0.19,38.43,32.55,-52.78
4:10:12AM,-0.6,0.83,-0.21,40.04,36.54,-52.5
4:10:12AM,-0.63,0.86,-0.26,44.73,36.4,-51.52
4:10:12AM,-0.68,1,-0.27,49.35,28.49,-54.32
4:10:12AM,-0.68,0.84,-0.26,50.68,25.55,-58.66
4:10:12AM,-0.67,0.78,-0.26,54.67,25.13,-61.18
4:10:12AM,-0.7,0.74,-0.26,58.94,22.12,-63.49
4:10:12AM,-0.72,0.69,-0.27,67.69,17.92,-61.88
4:10:12AM,-0.69,0.7,-0.25,73.43,20.3,-55.3
4:10:12AM,-0.69,0.72,-0.26,77.77,22.75,-48.09
4:10:12AM,-0.68,0.73,-0.27,82.6,25.48,-44.31
4:10:12AM,-0.66,0.75,-0.26,80.78,32.83,-43.82
4:10:12AM,-0.63,0.72,-0.28,81.27,40.95,-41.37
4:10:12AM,-0.61,0.7,-0.3,80.57,49.7,-36.12
4:10:12AM,-0.6,0.71,-0.3,73.85,57.47,-30.31
4:10:12AM,-0.6,0.72,-0.31,63.63,65.1,-19.95
4:10:12AM,-0.6,0.76,-0.33,48.16,71.61,-14.84
4:10:12AM,-0.61,0.75,-0.36,41.02,79.1,-8.61
4:10:12AM,-0.63,0.77,-0.4,35.07,79.73,0.56
4:10:12AM,-0.64,0.8,-0.45,28.42,76.3,6.37
4:10:12AM,-0.65,0.79,-0.48,31.64,66.43,13.16
4:10:12AM,-0.63,0.83,-0.48,24.15,53.9,15.96
4:10:12AM,-0.61,0.85,-0.49,14.7,39.69,11.69
4:10:12AM,-0.57,0.83,-0.46,9.52,26.32,2.45
4:10:12AM,-0.54,0.82,-0.42,14.21,21.35,-10.64
4:10:12AM,-0.54,0.83,-0.39,20.79,21.91,-25.97
4:10:12AM,-0.54,0.88,-0.39,12.11,24.85,-39.48
4:10:12AM,-0.53,0.86,-0.4,-0.07,26.81,-49.7
4:10:12AM,-0.52,0.85,-0.39,-11.34,28.21,-57.47
4:10:12AM,-0.5,0.8,-0.38,-21.56,30.87,-62.09
4:10:12AM,-0.49,0.77,-0.37,-28.21,37.1,-62.09
4:10:12AM,-0.5,0.75,-0.37,-33.32,40.81,-61.74
4:10:12AM,-0.51,0.73,-0.38,-38.15,43.89,-59.85
4:10:12AM,-0.52,0.71,-0.39,-40.6,41.86,-60.97
4:10:12AM,-0.52,0.69,-0.38,-44.03,40.88,-63.07
4:10:12AM,-0.5,0.66,-0.37,-47.53,42.21,-64.82
4:10:12AM,-0.47,0.63,-0.36,-48.86,48.86,-63.35
4:10:12AM,-0.46,0.63,-0.4,-51.45,54.74,-61.53
4:10:12AM,-0.43,0.62,-0.44,-54.32,55.51,-58.52
4:10:12AM,-0.4,0.59,-0.49,-48.44,55.23,-51.8
4:10:12AM,-0.36,0.58,-0.53,-46.2,52.64,-41.65
4:10:12AM,-0.32,0.53,-0.55,-42.63,49.84,-32.55
4:10:12AM,-0.32,0.54,-0.58,-30.94,46.27,-29.61
4:10:12AM,-0.37,0.54,-0.62,-19.53,39.48,-29.19
4:10:12AM,-0.36,0.54,-0.63,-9.66,32.06,-24.57
4:10:12AM,-0.33,0.53,-0.66,15.54,27.16,-14.63
4:10:12AM,-0.32,0.53,-0.67,12.67,24.36,-5.67
4:10:12AM,-0.34,0.53,-0.66,28.91,24.29,0.91
4:10:12AM,-0.48,0.6,-0.6,31.01,12.6,0.07
4:10:12AM,-1.08,0.79,-0.34,-26.39,-80.08,-36.75
4:10:12AM,-1.11,0.75,-0.14,-83.09,-160.16,-59.57
4:10:12AM,-0.78,0.54,-0.08,-95.9,-152.18,-23.1
4:10:12AM,-0.62,0.48,-0.06,-70.7,-90.79,-9.31
4:10:12AM,-0.62,0.57,-0.04,-39.55,-22.12,3.36
4:10:12AM,-0.72,0.75,-0.04,-43.75,32.83,-9.1
4:10:12AM,-0.73,0.74,-0.14,-50.61,26.04,-25.69
4:10:12AM,-0.63,0.65,-0.33,-45.43,22.54,-21.07
4:10:12AM,-0.61,0.66,-0.48,-30.52,4.27,-14.77
4:10:12AM,-0.6,0.71,-0.47,-12.74,-11.97,-11.76
4:10:12AM,-0.58,0.72,-0.36,-9.87,-17.5,-12.81
4:10:12AM,-0.57,0.69,-0.24,-12.39,-12.25,-13.65
4:10:12AM,-0.59,0.65,-0.13,-10.5,-1.47,-15.19
4:10:12AM,-0.6,0.63,-0.16,-9.45,10.22,-12.81
4:10:12AM,-0.64,0.63,-0.22,-6.51,17.29,-11.41
4:10:12AM,-0.65,0.66,-0.27,-4.27,19.39,-12.6
4:10:12AM,-0.67,0.66,-0.29,-6.16,15.96,-11.27
4:10:12AM,-0.69,0.68,-0.29,-5.18,11.06,-11.13
4:10:12AM,-0.7,0.68,-0.29,0.07,3.99,-10.22
4:10:12AM,-0.68,0.7,-0.29,1.47,-2.73,-8.82
4:10:12AM,-0.62,0.68,-0.31,2.66,-2.59,-10.43
4:10:12AM,-0.6,0.64,-0.35,7.91,1.82,-9.31
4:10:12AM,-0.65,0.62,-0.39,13.09,2.45,-9.31
4:10:12AM,-0.69,0.6,-0.4,18.69,-0.07,-10.92
4:10:12AM,-0.69,0.59,-0.43,22.19,-2.45,-11.62
4:10:12AM,-0.7,0.57,-0.42,26.6,-3.64,-12.95
4:10:12AM,-0.73,0.58,-0.4,29.89,-3.29,-16.38
4:10:12AM,-0.77,0.59,-0.37,31.29,-2.52,-20.3
4:10:12AM,-0.78,0.62,-0.38,31.5,-1.82,-21.98
4:10:12AM,-0.74,0.66,-0.38,29.96,-1.61,-25.34
4:10:12AM,-0.7,0.68,-0.37,24.78,1.68,-27.65
4:10:12AM,-0.68,0.7,-0.38,17.01,5.25,-27.02
4:10:12AM,-0.65,0.7,-0.38,5.81,7.28,-23.73
4:10:12AM,-0.6,0.66,-0.37,-7.91,8.19,-18.62
4:10:12AM,-0.6,0.6,-0.35,-7.21,12.95,-12.46
4:10:12AM,-0.66,0.58,-0.35,0.21,17.71,-9.38
4:10:12AM,-0.79,0.61,-0.41,7.42,16.66,-6.02
4:10:12AM,-0.88,0.65,-0.46,10.85,7.49,-5.04
4:10:12AM,-0.9,0.69,-0.46,10.08,-4.9,-7.21
4:10:12AM,-0.82,0.66,-0.43,6.79,-11.97,-8.05
4:10:12AM,-0.75,0.66,-0.41,5.95,-14.35,-8.54
4:10:12AM,-0.72,0.65,-0.41,8.47,-14.84,-11.55
4:10:12AM,-0.73,0.66,-0.42,10.36,-17.57,-13.51
4:10:12AM,-0.76,0.64,-0.42,11.34,-20.44,-16.17
4:10:12AM,-0.77,0.61,-0.4,12.18,-22.54,-14.98
4:10:12AM,-0.79,0.62,-0.36,6.93,-23.87,-13.09
4:10:12AM,-0.84,0.62,-0.31,6.65,-25.69,-11.76
4:10:12AM,-0.89,0.64,-0.27,11.27,-24.29,-9.1
4:10:12AM,-0.94,0.7,-0.27,11.55,-21.56,-6.72
4:10:12AM,-0.95,0.71,-0.28,6.65,-18.76,-5.25
4:10:12AM,-0.92,0.69,-0.3,2.45,-19.67,-5.39
4:10:12AM,-0.84,0.67,-0.3,0.7,-20.3,-6.93
4:10:12AM,-0.79,0.7,-0.27,-3.85,-16.87,-11.06
4:10:12AM,-0.78,0.67,-0.28,-9.8,-14.63,-12.53
4:10:12AM,-0.63,0.63,-0.31,-11.55,-11.48,-13.44
4:10:12AM,-0.75,0.63,-0.33,-12.74,-10.71,-14.42
4:10:12AM,-0.76,0.65,-0.33,-14.56,-10.5,-14.28
4:10:12AM,-0.78,0.64,-0.33,-16.73,-10.36,-14.98
4:10:12AM,-0.82,0.62,-0.34,-17.36,-10.71,-14.98
4:10:12AM,-0.84,0.56,-0.33,-15.4,-14.28,-13.23
4:10:12AM,-0.84,0.53,-0.31,-11.97,-17.22,-9.87
4:10:12AM,-0.84,0.53,-0.25,-8.89,-18.13,-7.63
4:10:12AM,-0.87,0.56,-0.22,-7.91,-18.27,-4.34
4:10:12AM,-0.87,0.59,-0.21,-7.7,-21.35,1.05
4:10:12AM,-0.85,0.64,-0.21,-6.09,-26.25,3.92
4:10:12AM,-0.84,0.66,-0.19,-5.74,-29.89,6.58
4:10:12AM,-0.82,0.67,-0.19,-7.21,-30.38,9.24
4:10:12AM,-0.82,0.69,-0.19,-9.45,-30.87,9.87
4:10:12AM,-0.85,0.69,-0.18,-13.02,-31.36,10.01
4:10:12AM,-0.89,0.68,-0.16,-15.61,-32.34,10.71
4:10:12AM,-0.92,0.67,-0.14,-15.33,-35.63,10.99
4:10:12AM,-0.94,0.66,-0.14,-15.19,-38.43,11.55
4:10:12AM,-0.93,0.64,-0.16,-14.7,-42.28,11.97
4:10:12AM,-0.87,0.63,-0.17,-14.35,-46.27,15.68
4:10:12AM,-0.74,0.66,-0.17,-15.47,-51.52,19.18
4:10:12AM,-0.66,0.71,-0.15,-16.8,-51.73,22.68
4:10:12AM,-0.61,0.76,-0.12,-16.1,-48.23,28.84
4:10:12AM,-0.59,0.81,-0.11,-16.59,-44.66,36.75
4:10:12AM,-0.57,0.86,-0.11,-16.31,-43.82,48.86
4:10:12AM,-0.58,0.87,-0.1,-15.61,-46.41,58.38
4:10:12AM,-0.6,0.89,-0.07,-15.75,-50.75,67.62
4:10:12AM,-0.63,0.9,-0.05,-15.61,-54.6,75.32
4:10:12AM,-0.66,0.89,-0.02,-15.61,-54.18,76.79
4:10:12AM,-0.67,0.84,0,-11.06,-50.05,81.13
4:10:12AM,-0.68,0.82,0.01,-7.21,-44.73,84.35
4:10:12AM,-0.71,0.82,0,-9.66,-42.77,90.23
4:10:12AM,-0.75,0.85,-0.01,-15.89,-42.42,92.26
4:10:12AM,-0.82,0.84,-0.07,-25.06,-56.63,100.94
4:10:12AM,-0.86,0.84,-0.06,-28.21,-73.36,112.07
4:10:12AM,-0.85,0.87,-0.04,-22.26,-77.42,119.21
4:10:12AM,-0.84,0.89,-0.07,-4.83,-71.19,116.55
4:10:12AM,-0.88,0.91,-0.12,7.35,-64.89,115.78
4:10:12AM,-0.92,0.94,-0.13,0.28,-69.09,114.31
4:10:12AM,-0.89,0.9,-0.09,-11.9,-69.16,106.05
4:10:12AM,-0.85,0.86,-0.03,-22.96,-69.93,102.62
4:10:12AM,-0.81,0.83,0.04,-37.03,-63.7,102.9
4:10:12AM,-0.78,0.82,0.06,-47.53,-58.52,99.75
4:10:12AM,-0.74,0.81,0.08,-60.69,-56.21,102.76
4:10:12AM,-0.74,0.79,0.09,-61.32,-59.08,107.03
4:10:12AM,-0.67,0.77,0.07,-53.83,-51.87,103.32
4:10:12AM,-0.6,0.77,0,-54.95,-40.53,105.07
4:10:12AM,-0.54,0.79,-0.07,-67.62,-34.37,116.76
4:10:12AM,-0.48,0.88,-0.06,-75.81,-33.11,122.5
4:10:12AM,-0.42,0.94,-0.03,-73.64,-30.38,120.96
4:10:12AM,-0.43,0.96,-0.01,-59.36,-31.22,116.13
4:10:12AM,-0.48,0.84,0.06,-54.74,-31.57,116.41
4:10:12AM,-0.53,0.75,0.06,-57.82,-27.86,119.91
4:10:12AM,-0.55,0.7,0.06,-57.82,-24.64,120.96
4:10:12AM,-0.54,0.7,0.07,-51.31,-23.45,119.07
4:10:12AM,-0.51,0.72,0.09,-47.46,-24.01,115.5
4:10:12AM,-0.48,0.71,0.11,-48.3,-23.1,114.03
4:10:12AM,-0.46,0.65,0.1,-38.29,-24.71,112.56
4:10:12AM,-0.43,0.66,0.13,-30.31,-22.12,108.57
4:10:12AM,-0.39,0.71,0.13,-29.4,-17.85,103.88
4:10:12AM,-0.36,0.75,0.12,-26.74,-14.7,98.07
4:10:12AM,-0.32,0.75,0.12,-25.76,-9.94,93.1
4:10:12AM,-0.31,0.73,0.12,-22.68,-6.44,86.59
4:10:12AM,-0.31,0.71,0.14,-22.54,-3.85,79.73
4:10:12AM,-0.3,0.66,0.15,-20.37,-2.17,73.99
4:10:12AM,-0.3,0.61,0.13,-16.38,0.07,67.62
4:10:12AM,-0.3,0.56,0.1,-7.98,1.82,62.23
4:10:12AM,-0.3,0.54,0.07,3.29,2.1,55.16
4:10:12AM,-0.28,0.52,0.07,12.39,2.94,48.37
4:10:12AM,-0.27,0.51,0.08,21.14,3.64,41.02
4:10:12AM,-0.25,0.53,0.08,25.13,5.88,34.58
4:10:12AM,-0.23,0.51,0.04,32.06,7.21,28
4:10:12AM,-0.24,0.53,0.04,41.72,7.14,20.16
4:10:12AM,-0.19,0.55,0.11,43.75,10.78,13.09
4:10:12AM,-0.16,0.53,0.15,39.27,16.52,6.44
4:10:12AM,-0.15,0.47,0.14,42.7,22.47,-0.7
4:10:12AM,-0.19,0.52,0.09,51.38,27.79,-11.9
4:10:12AM,-0.16,0.54,-0.04,62.51,30.8,-17.71
4:10:12AM,-0.16,0.61,-0.11,72.03,32.27,-25.48
4:10:12AM,-0.13,0.65,-0.15,76.93,30.59,-29.05
4:10:12AM,-0.18,0.74,-0.16,79.24,29.68,-40.04
4:10:12AM,-0.2,0.76,-0.16,82.18,30.17,-48.02
4:10:12AM,-0.2,0.77,-0.09,78.33,28.49,-58.17
4:10:12AM,-0.18,0.75,-0.04,73.08,28.77,-63.63
4:10:12AM,-0.16,0.76,0.01,74.13,31.64,-68.88
4:10:12AM,-0.07,0.85,0.09,73.99,25.83,-66.78
4:10:12AM,0.05,1.19,0.29,44.59,-2.73,-57.96
4:10:12AM,0.42,1.43,0.69,-20.3,-59.71,-10.92
4:10:12AM,0.63,1.92,0.78,51.94,16.31,80.99
4:10:12AM,-0.2,3.02,0.05,48.72,128.17,73.92
4:10:12AM,-1.29,3.3,-0.7,-51.66,79.94,-10.22
4:10:12AM,-0.82,2.16,0.15,-115.08,-0.42,-49.7
4:10:12AM,-0.06,0.92,0.42,-134.33,2.03,-38.08
4:10:12AM,0.05,0.4,0.31,-80.57,24.36,-34.86
4:10:12AM,-0.14,0.25,0.11,-28.42,29.33,-37.45
4:10:12AM,-0.33,0.19,0.01,2.59,14,-36.75
4:10:12AM,-0.4,0.17,0.05,18.55,-0.56,-39.83
4:10:12AM,-0.4,0.14,0.13,28.7,-2.03,-44.38
4:10:12AM,-0.4,0.23,0.23,22.05,10.22,-45.5
4:10:12AM,-0.36,0.35,0.11,7.07,19.46,-36.19
4:10:12AM,-0.26,0.61,-0.02,10.08,25.34,-24.71
4:10:12AM,-0.19,0.94,-0.13,20.58,21.63,-13.23
4:10:12AM,-0.28,1.28,-0.16,42.84,-5.81,0.84
4:10:12AM,-0.54,1.64,0.05,48.3,-17.92,0.21
4:10:12AM,-0.62,1.68,0.1,22.96,-7.35,-19.53
4:10:12AM,-0.42,1.27,0.08,33.32,-4.06,-28.56
4:10:12AM,-0.23,0.95,0.08,58.66,-2.8,-28.35
4:10:12AM,-0.22,0.9,0.05,75.88,5.04,-27.02
4:10:12AM,-0.29,0.91,0.03,71.54,10.99,-31.29
4:10:12AM,-0.35,0.85,-0.01,64.19,10.85,-33.39
4:10:12AM,-0.34,0.83,-0.03,57.89,9.66,-33.88
4:10:12AM,-0.34,0.86,-0.06,54.67,13.02,-32.2
4:10:12AM,-0.4,0.94,-0.11,53.76,9.8,-33.88
4:10:12AM,-0.44,1.04,-0.08,54.95,12.46,-39.9
4:10:12AM,-0.44,1.09,-0.11,54.88,15.19,-41.79
4:10:12AM,-0.44,1.15,-0.13,55.79,15.82,-40.67
4:10:12AM,-0.45,1.21,-0.17,55.23,19.04,-44.94
4:10:12AM,-0.48,1.24,-0.18,48.79,18.41,-50.33
4:10:12AM,-0.53,1.2,-0.16,37.87,11.83,-55.86
4:10:12AM,-0.53,1.12,-0.05,26.88,2.59,-61.67
4:10:12AM,-0.56,1.03,0,22.4,10.08,-68.81
4:10:12AM,-0.63,0.94,-0.04,24.01,24.36,-74.06
4:10:12AM,-0.69,0.93,-0.1,28.56,32.97,-75.04
4:10:12AM,-0.73,0.91,-0.16,31.01,36.54,-74.83
4:10:12AM,-0.72,0.87,-0.19,31.22,34.93,-75.39
4:10:12AM,-0.68,0.79,-0.21,39.83,35.56,-74.2
4:10:12AM,-0.65,0.72,-0.22,51.03,34.65,-70.21
4:10:12AM,-0.62,0.68,-0.22,58.66,28.28,-63.42
4:10:12AM,-0.61,0.67,-0.2,65.59,18.34,-55.51
4:10:12AM,-0.61,0.68,-0.17,72.87,11.41,-49.07
4:10:12AM,-0.59,0.71,-0.16,81.55,12.53,-46.55
4:10:12AM,-0.59,0.75,-0.16,86.8,12.81,-43.19
4:10:12AM,-0.57,0.79,-0.16,82.18,14.7,-39.34
4:10:12AM,-0.55,0.8,-0.18,73.85,15.82,-33.95
4:10:12AM,-0.54,0.81,-0.18,62.93,19.32,-26.39
4:10:12AM,-0.51,0.82,-0.2,53.13,28.49,-20.23
4:10:12AM,-0.51,0.82,-0.23,48.16,38.92,-15.75
4:10:12AM,-0.49,0.86,-0.24,41.16,50.75,-12.81
4:10:12AM,-0.48,0.9,-0.27,24.85,58.59,-15.12
4:10:12AM,-0.46,0.88,-0.29,9.31,65.66,-17.71
4:10:12AM,-0.46,0.89,-0.31,-11.41,67.13,-26.53
4:10:12AM,-0.42,0.86,-0.31,-24.01,68.81,-33.18
4:10:12AM,-0.41,0.82,-0.3,-29.19,69.79,-37.8
4:10:12AM,-0.41,0.83,-0.33,-28.56,64.89,-41.86
4:10:12AM,-0.39,0.87,-0.34,-29.05,58.59,-47.67
4:10:12AM,-0.37,0.87,-0.34,-36.61,54.53,-52.29
4:10:12AM,-0.38,0.83,-0.36,-40.11,50.12,-52.15
4:10:12AM,-0.39,0.8,-0.39,-40.25,46.2,-46.55
4:10:12AM,-0.43,0.8,-0.41,-35.21,40.81,-41.72
4:10:12AM,-0.47,0.8,-0.43,-29.4,32.2,-18.76
4:10:12AM,-0.47,0.64,-0.43,-21.28,21.14,-29.89
4:10:12AM,-0.47,0.7,-0.44,-10.64,11.97,-23.73
4:10:12AM,-0.45,0.65,-0.45,-0.35,3.01,-14.35
4:10:12AM,-0.46,0.64,-0.48,8.33,-10.5,-6.02
4:10:12AM,-0.46,0.64,-0.51,19.81,-20.65,-2.8
4:10:12AM,-0.43,0.65,-0.52,29.61,-24.29,-3.36
4:10:12AM,-0.43,0.64,-0.58,31.92,-28.63,-1.19
4:10:12AM,-0.44,0.64,-0.63,36.75,-31.71,0.28
4:10:12AM,-0.43,0.62,-0.66,46.2,-29.68,2.17
4:10:12AM,-0.44,0.57,-0.65,61.81,-24.71,3.36
4:10:12AM,-0.43,0.51,-0.62,75.18,-17.5,5.6
4:10:12AM,-0.44,0.53,-0.58,83.23,-11.48,-2.45
4:10:12AM,-0.45,0.56,-0.47,87.29,-4.97,-15.82
4:10:12AM,-0.4,0.63,-0.31,72.17,22.82,-32.83
4:10:12AM,-0.62,0.93,-0.13,1.82,26.95,-61.11
4:10:12AM,-1.22,1.09,0.15,-161.56,-90.02,-83.51
4:10:12AM,-0.81,0.62,0.37,-231.84,-112.98,-57.12
4:10:12AM,-0.49,0.34,0.78,-102.55,10.92,-24.92
4:10:12AM,-0.39,0.59,0.12,-30.73,85.05,-32.97
4:10:12AM,-0.46,0.59,-0.34,-16.73,90.16,-29.33
4:10:12AM,-0.56,0.7,-0.57,-5.95,55.79,-19.11
4:10:12AM,-0.6,0.8,-0.56,13.16,9.31,-9.8
4:10:12AM,-0.52,0.93,-0.32,18.13,-13.65,-4.76
4:10:12AM,-0.45,1.02,-0.13,7.91,-12.95,-7.56
4:10:12AM,-0.43,0.97,-0.08,-4.69,-4.55,-11.48
4:10:12AM,-0.45,0.84,-0.12,-9.94,6.23,-14.42
4:10:12AM,-0.5,0.81,-0.22,-7.63,11.13,-12.46
4:10:12AM,-0.56,0.79,-0.29,-3.22,1.54,-9.52
4:10:12AM,-0.53,0.81,-0.29,1.26,-0.07,-11.62
4:10:12AM,-0.46,0.86,-0.28,0.21,-0.14,-7.98
4:10:12AM,-0.41,0.89,-0.22,-2.24,1.19,-8.19
4:10:12AM,-0.41,0.85,-0.19,-5.25,7.42,-5.11
4:10:12AM,-0.47,0.83,-0.26,-4.62,8.54,-7.07
4:10:12AM,-0.5,0.8,-0.31,-1.05,5.46,-7.07
4:10:12AM,-0.49,0.78,-0.32,-1.68,9.73,-9.52
4:10:12AM,-0.58,0.77,-0.38,-8.68,5.39,-7.77
4:10:12AM,-0.62,0.7,-0.34,-5.18,-2.8,-10.64
4:10:12AM,-0.59,0.65,-0.32,-0.28,4.9,-14.35
4:10:12AM,-0.62,0.66,-0.38,6.3,9.59,-16.87
4:10:12AM,-0.66,0.71,-0.39,9.73,1.12,-17.78
4:10:12AM,-0.64,0.73,-0.34,7.77,-1.33,-19.04
4:10:12AM,-0.62,0.73,-0.31,7.35,0.14,-20.44
4:10:12AM,-0.63,0.76,-0.31,9.66,-0.42,-21.42
4:10:12AM,-0.6,0.78,-0.33,9.31,-2.1,-20.65
4:10:12AM,-0.57,0.78,-0.35,10.64,-4.13,-19.95
4:10:12AM,-0.56,0.77,-0.33,12.11,-4.13,-19.18
4:10:12AM,-0.58,0.75,-0.33,13.79,-3.85,-19.53
4:10:12AM,-0.61,0.73,-0.35,15.05,-6.44,-20.86
4:10:12AM,-0.62,0.71,-0.37,15.47,-9.8,-21.56
4:10:12AM,-0.61,0.69,-0.37,11.27,-10.15,-21.35
4:10:12AM,-0.6,0.69,-0.38,5.67,-7.21,-20.09
4:10:12AM,-0.6,0.68,-0.37,0.28,-1.61,-15.54
4:10:12AM,-0.64,0.65,-0.36,-2.03,0.91,-10.99
4:10:12AM,-0.65,0.62,-0.36,0,0.49,-7.28
4:10:12AM,-0.68,0.64,-0.36,3.85,-1.4,-4.27
4:10:12AM,-0.72,0.68,-0.4,9.59,-5.11,-3.99
4:10:12AM,-0.74,0.74,-0.44,13.79,-9.24,-4.27
4:10:12AM,-0.74,0.8,-0.44,14.77,-12.81,-6.58
4:10:12AM,-0.72,0.85,-0.37,10.57,-15.75,-9.03
4:10:12AM,-0.71,0.86,-0.3,3.15,-17.57,-13.23
4:10:12AM,-0.69,0.84,-0.26,-3.43,-18.76,-15.05
4:10:12AM,-0.67,0.83,-0.25,-5.6,-16.52,-18.06
4:10:12AM,-0.67,0.82,-0.26,-7,-13.09,-16.38
4:10:12AM,-0.7,0.79,-0.27,-6.93,-11.83,-15.82
4:10:12AM,-0.77,0.78,-0.27,-5.95,-11.76,-14.77
4:10:12AM,-0.85,0.79,-0.29,-3.01,-13.37,-14.21
4:10:12AM,-0.92,0.81,-0.28,-4.83,-16.66,-10.78
4:10:12AM,-0.93,0.79,-0.25,-11.48,-18.41,-8.61
4:10:12AM,-0.92,0.76,-0.23,-12.67,-17.92,-7
4:10:12AM,-0.89,0.75,-0.24,-13.09,-17.22,-5.25
4:10:12AM,-0.83,0.75,-0.25,-11.83,-14.98,-6.09
4:10:12AM,-0.77,0.77,-0.27,-11.2,-12.39,-7.14
4:10:12AM,-0.74,0.8,-0.29,-13.44,-12.81,-7.84
4:10:12AM,-0.72,0.78,-0.27,-17.22,-10.29,-10.01
4:10:12AM,-0.75,0.73,-0.24,-20.23,-4.55,-12.32
4:10:12AM,-0.77,0.68,-0.28,-24.57,-3.5,-12.6
4:10:12AM,-0.74,0.62,-0.33,-26.53,-6.23,-13.79
4:10:12AM,-0.74,0.61,-0.29,-24.99,-5.18,-15.47
4:10:12AM,-0.79,0.65,-0.24,-21.77,-4.55,-15.26
4:10:12AM,-0.84,0.74,-0.2,-21.14,-10.29,-12.39
4:10:12AM,-0.86,0.79,-0.16,-20.16,-17.29,-7.63
4:10:12AM,-0.85,0.83,-0.12,-14.49,-22.96,-1.96
4:10:12AM,-0.82,0.88,-0.12,-11.34,-28.07,2.59
4:10:12AM,-0.79,0.88,-0.14,-10.57,-33.18,6.16
4:10:12AM,-0.78,0.88,-0.14,-9.94,-37.8,10.78
4:10:12AM,-0.79,0.87,-0.11,-10.29,-39.48,17.29
4:10:12AM,-0.8,0.81,-0.08,-14.42,-41.37,21.77
4:10:12AM,-0.79,0.74,-0.05,-19.46,-45.15,26.67
4:10:12AM,-0.73,0.71,-0.03,-22.33,-51.52,31.64
4:10:12AM,-0.66,0.71,-0.03,-21.28,-55.51,36.75
4:10:12AM,-0.62,0.75,-0.05,-20.44,-59.64,42.28
4:10:12AM,-0.58,0.8,-0.06,-21.98,-62.72,49.35
4:10:12AM,-0.56,0.85,-0.06,-22.05,-64.33,57.4
4:10:12AM,-0.53,0.89,-0.03,-21.91,-64.05,63.7
4:10:12AM,-0.5,0.92,0.01,-21,-61.6,71.54
4:10:12AM,-0.49,0.93,-0.02,-16.94,-60.34,78.05
4:10:12AM,-0.45,0.93,-0.06,-11.06,-60.9,83.02
4:10:12AM,-0.39,0.9,-0.09,-7.42,-58.59,86.1
4:10:12AM,-0.34,0.86,-0.1,-10.99,-49.77,90.65
4:10:12AM,-0.36,0.88,-0.14,-19.6,-42.7,103.11
4:10:12AM,-0.61,0.93,-0.16,-24.57,-55.37,109.2
4:10:12AM,-0.6,0.95,-0.13,-22.82,-61.32,102.06
4:10:12AM,-0.62,0.92,-0.08,-14.84,-51.87,98.63
4:10:12AM,-0.68,0.93,-0.07,-16.03,-40.88,102.62
4:10:12AM,-0.77,0.98,-0.12,-19.32,-35.77,97.51
4:10:12AM,-0.81,0.99,-0.12,-21.14,-32.48,93.17
4:10:12AM,-0.88,0.99,-0.09,-24.92,-39.69,94.01
4:10:12AM,-0.88,1.01,-0.01,-33.6,-46.83,93.66
4:10:12AM,-0.81,0.98,0.1,-41.02,-46.83,89.74
4:10:12AM,-0.72,0.91,0.17,-50.26,-40.67,85.26
4:10:12AM,-0.7,0.84,0.18,-65.38,-36.96,85.82
4:10:12AM,-0.67,0.79,0.11,-71.96,-32.34,85.4
4:10:12AM,-0.69,0.72,0.05,-63.49,-38.15,86.31
4:10:12AM,-0.68,0.7,0.03,-55.44,-45.64,82.18
4:10:12AM,-0.62,0.68,0.04,-54.6,-44.45,82.32
4:10:12AM,-0.52,0.74,0.05,-66.36,-31.99,84.91
4:10:12AM,-0.35,0.76,0.05,-66.43,-7.35,92.33
4:10:12AM,-0.27,0.84,0.01,-48.16,0.42,103.95
4:10:12AM,-0.24,1.02,0.01,-38.92,-8.82,116.27
4:10:12AM,-0.36,1.08,0.04,-56.28,-9.24,106.96
4:10:12AM,-0.52,0.87,-0.03,-79.94,-8.26,105.63
4:10:12AM,-0.61,0.71,-0.06,-68.6,-18.13,108.22
4:10:12AM,-0.57,0.68,0.04,-49.98,-25.69,107.52
4:10:12AM,-0.51,0.69,0.14,-45.36,-24.01,102.83
4:10:12AM,-0.48,0.66,0.15,-40.39,-26.6,100.59
4:10:12AM,-0.41,0.63,0.13,-32.69,-28,98.98
4:10:12AM,-0.37,0.67,0.11,-23.94,-26.46,97.65
4:10:12AM,-0.38,0.72,0.09,-17.22,-24.92,96.46
4:10:12AM,-0.41,0.75,0.07,-13.23,-25.41,93.45
4:10:12AM,-0.4,0.75,0.09,-10.99,-28.56,89.53
4:10:12AM,-0.38,0.74,0.12,-10.99,-28.98,85.33
4:10:12AM,-0.33,0.73,0.13,-9.94,-27.58,80.36
4:10:12AM,-0.28,0.71,0.13,-8.05,-25.41,74.27
4:10:12AM,-0.27,0.68,0.11,-3.85,-22.82,67.48
4:10:12AM,-0.27,0.67,0.11,1.33,-21.49,60.83
4:10:12AM,-0.25,0.66,0.11,5.04,-19.74,54.88
4:10:12AM,-0.22,0.66,0.13,9.1,-15.96,47.18
4:10:12AM,-0.18,0.64,0.13,13.3,-12.53,40.25
4:10:12AM,-0.18,0.63,0.11,18.76,-10.78,30.87
4:10:12AM,-0.17,0.6,0.11,24.36,-9.38,21.56
4:10:12AM,-0.14,0.59,0.13,27.58,-5.11,14.42
4:10:12AM,-0.1,0.56,0.14,30.03,1.4,9.8
4:10:12AM,-0.1,0.56,0.16,34.3,10.22,1.4
4:10:12AM,-0.1,0.55,0.13,42.98,19.67,-8.75
4:10:12AM,-0.08,0.53,0.06,55.79,28.14,-16.17
4:10:12AM,-0.11,0.54,-0.05,70.98,35.21,-26.88
4:10:12AM,-0.12,0.54,-0.14,82.6,32.06,-35.07
4:10:12AM,-0.16,0.61,-0.16,84.14,24.85,-39.27
4:10:12AM,-0.18,0.72,-0.16,84.42,17.64,-41.79
4:10:12AM,-0.16,0.79,-0.14,78.96,9.31,-46.06
4:10:12AM,-0.12,0.8,-0.12,76.51,7,-50.26
4:10:12AM,-0.1,0.79,-0.1,80.92,4.62,-56.63
4:10:12AM,-0.07,0.72,-0.05,83.37,3.92,-61.04
4:10:12AM,-0.04,0.73,-0.02,84.63,7.7,-65.1
4:10:12AM,0.06,0.89,0.05,69.23,3.64,-61.74
4:10:12AM,0.39,1.21,0.48,4.97,-30.59,-45.01
4:10:12AM,1.06,1.48,0.78,23.66,-24.99,30.94
4:10:12AM,0.6,2.67,0.28,86.24,112.98,124.18
4:10:12AM,-1.18,3.82,-0.62,-64.61,100.66,53.06
4:10:12AM,-1.3,2.9,0.01,-81.9,-18.97,-53.76
4:10:12AM,-0.14,1.03,0.3,-135.45,-15.05,-41.37
4:10:12AM,0.03,0.31,0.03,-94.57,12.25,-32.97
4:10:12AM,-0.17,0,-0.08,-14.91,5.81,-39.83
4:10:12AM,-0.27,-0.12,0.11,40.11,3.78,-34.65
4:10:12AM,-0.41,-0.02,0.36,37.94,14,-33.67
4:10:12AM,-0.48,0.14,0.25,23.52,29.12,-50.05
