Time,Accel_x,Accel_y,Accel_z,Gyr_x,Gyr_y,Gyr_z
4:10:12,-0.85,0.21,-0.23,10.99,-8.47,-3.22
4:10:12,-0.87,0.23,-0.22,12.74,-9.66,-4.76
4:10:12,-0.85,0.23,-0.21,17.85,-12.25,-7.42
4:10:12,-0.8,0.22,-0.19,23.87,-14.77,-8.05
4:10:12,-0.75,0.23,-0.18,26.74,-16.45,-4.83
4:10:12,-0.74,0.26,-0.2,24.92,-18.9,1.26
4:10:12,-0.78,0.3,-0.22,18.55,-22.26,7.84
4:10:12,-0.81,0.33,-0.24,15.26,-25.69,12.04
4:10:12,-0.78,0.37,-0.23,16.31,-25.41,10.22
4:10:12,-0.71,0.38,-0.21,18.83,-24.85,8.19
4:10:12,-0.63,0.36,-0.2,21.77,-23.8,13.72
4:10:12,-0.59,0.38,-0.19,14.91,-22.33,22.33
4:10:12,-0.61,0.41,-0.22,4.55,-19.81,27.23
4:10:12,-0.68,0.43,-0.26,-4.55,-18.27,24.36
4:10:12,-0.77,0.44,-0.32,-9.1,-19.74,17.57
4:10:12,-0.8,0.45,-0.33,-11.34,-22.54,9.94
4:10:12,-0.75,0.45,-0.31,-13.44,-23.24,6.23
4:10:12,-0.66,0.4,-0.29,-12.25,-24.43,15.54
4:10:12,-0.62,0.38,-0.28,-1.33,-30.38,32.97
4:10:12,-0.61,0.42,-0.28,11.06,-38.85,49.49
4:10:12,-0.68,0.49,-0.26,21.21,-43.82,55.3
4:10:12,-0.75,0.49,-0.25,30.52,-43.19,53.55
4:10:12,-0.84,0.49,-0.26,42.56,-47.53,50.19
4:10:12,-0.9,0.45,-0.26,69.93,-62.86,53.69
4:10:12,-0.94,0.42,-0.23,101.22,-82.88,75.74
4:10:12,-0.98,0.46,-0.21,124.74,-102.2,110.39
4:10:12,-0.99,0.59,-0.17,122.43,-116.2,145.18
4:10:12,-1.09,0.73,-0.05,94.22,-135.73,165.2
4:10:12,-1.28,0.95,0.19,18.83,-178.15,143.5
4:10:12,-1.17,1,0.51,-59.22,-173.18,147.21
4:10:12,-1.08,1.04,0.7,-71.19,-90.93,124.6
4:10:12,-1.15,1.2,0.31,-80.64,-3.43,98.49
4:10:12,-1.21,1.05,-0.14,-118.16,-21.77,91.07
4:10:12,-1.22,0.78,-0.3,-123.2,-44.38,98.77
4:10:12,-1.26,0.6,-0.26,-102.41,-53.34,111.65
4:10:12,-1.41,0.59,-0.15,-78.05,-49.28,117.11
4:10:12,-1.55,0.56,-0.09,-75.18,-37.94,110.04
4:10:12,-1.65,0.4,-0.16,-63.42,-33.74,91.98
4:10:12,-1.62,0.23,-0.26,-38.64,-32.9,65.1
4:10:12,-1.42,0.1,-0.25,-17.08,-28,42.42
4:10:12,-1.19,0.01,-0.19,-4.97,-24.43,29.82
4:10:12,-0.99,-0.05,-0.08,0.91,-17.01,21.91
4:10:12,-0.8,-0.05,-0.1,4.48,-8.54,31.36
4:10:12,-0.77,0.25,-0.14,11.13,-2.52,38.57
4:10:12,-0.83,0.61,-0.13,12.46,-1.54,36.68
4:10:12,-0.9,0.83,0.02,9.24,-2.17,32.2
4:10:12,-0.96,0.93,0.15,8.19,-1.12,16.94
4:10:12,-0.87,0.78,0.22,-3.99,-0.07,5.53
4:10:12,-0.75,0.52,0.17,-21.35,5.32,-3.5
4:10:12,-0.69,0.38,0.09,-25.41,10.36,-7.56
4:10:12,-0.66,0.35,0.04,-21.49,15.96,-13.09
4:10:12,-0.65,0.36,0.07,-15.61,25.41,-18.55
4:10:12,-0.65,0.38,0.1,-15.26,31.64,-22.68
4:10:12,-0.69,0.4,0.13,-19.81,33.53,-23.73
4:10:12,-0.7,0.43,0.15,-25.48,36.47,-22.05
4:10:12,-0.75,0.43,0.13,-28.49,37.38,-21.14
4:10:12,-0.78,0.42,0.11,-29.68,37.17,-18.76
4:10:12,-0.81,0.43,0.08,-29.96,37.24,-17.57
4:10:12,-0.86,0.43,0.06,-29.68,34.86,-17.71
4:10:12,-0.88,0.39,0.03,-24.36,30.31,-17.71
4:10:12,-0.88,0.34,0.02,-13.65,24.43,-17.36
4:10:12,-0.86,0.27,0.02,-1.61,18.9,-18.9
4:10:12,-0.82,0.23,0.04,7.77,15.89,-21.35
4:10:12,-0.79,0.2,0.03,19.88,13.16,-24.85
4:10:12,-0.77,0.19,0.02,30.87,13.3,-28.49
4:10:12,-0.75,0.22,0.01,41.58,13.93,-31.5
4:10:12,-0.73,0.28,0.02,45.57,15.82,-35.77
4:10:12,-0.72,0.36,0.03,42.28,18.34,-38.01
4:10:12,-0.72,0.44,0.02,37.03,19.53,-37.8
4:10:12,-0.73,0.51,0.04,25.97,20.23,-36.68
4:10:12,-0.74,0.54,0.05,17.29,20.02,-36.82
4:10:12,-0.75,0.54,0.05,12.53,20.37,-38.99
4:10:12,-0.77,0.54,0.07,10.08,18.69,-41.16
4:10:12,-0.77,0.52,0.1,6.58,19.18,-44.38
4:10:12,-0.77,0.5,0.11,-1.47,21.56,-47.67
4:10:12,-0.77,0.48,0.09,-16.1,24.01,-49.98
4:10:12,-0.77,0.46,0.06,-34.23,26.39,-52.15
4:10:12,-0.77,0.42,0.01,-51.52,29.33,-52.57
4:10:12,-0.77,0.4,-0.03,-54.25,33.67,-54.6
4:10:12,-0.77,0.39,-0.07,-48.58,36.75,-55.44
4:10:12,-0.76,0.4,-0.08,-44.45,38.71,-56
4:10:12,-0.74,0.4,-0.09,-40.32,39.13,-55.16
4:10:12,-0.74,0.4,-0.1,-34.02,40.6,-50.05
4:10:12,-0.76,0.48,-0.13,-29.68,42.84,-48.3
4:10:12,-0.76,0.48,-0.14,-27.58,45.43,-48.65
4:10:12,-0.77,0.43,-0.12,-21.35,46.2,-43.82
4:10:12,-0.77,0.44,-0.08,-7.21,48.02,-44.38
4:10:12,-0.75,0.4,-0.03,1.33,51.66,-40.46
4:10:12,-0.74,0.37,0.01,16.59,53.41,-38.15
4:10:12,-0.79,0.36,0.07,24.15,48.02,-34.93
4:10:12,-0.81,0.37,0.15,17.22,41.51,-34.58
4:10:12,-0.81,0.33,0.21,7.35,35.7,-29.12
4:10:12,-0.77,0.4,0.21,2.31,35.56,-29.4
4:10:12,-0.76,0.42,0.19,-1.75,39.06,-33.18
4:10:12,-0.74,0.41,0.16,-4.97,40.95,-29.54
4:10:12,-0.72,0.42,0.15,-5.95,40.32,-25.9
4:10:12,-0.73,0.42,0.12,0.28,36.54,-24.85
4:10:12,-0.72,0.4,0.1,-0.84,28.35,-16.52
4:10:12,-0.72,0.4,0.07,2.59,27.58,-6.72
4:10:12,-0.77,0.44,-0.03,8.47,43.33,3.71
4:10:12,-0.91,0.47,-0.22,10.99,47.88,10.85
4:10:12,-1.11,0.43,-0.35,23.03,42.07,23.45
4:10:12,-1.34,0.43,-0.38,52.08,42.7,40.11
4:10:12,-1.6,0.52,-0.38,84.42,48.65,45.85
4:10:12,-1.91,0.61,-0.36,108.36,21.14,40.53
4:10:12,-2.13,0.69,0.03,102.97,-55.65,47.25
4:10:12,-1.93,0.69,0.38,77.84,-65.87,36.61
4:10:12,-1.24,0.49,0.01,41.79,-43.89,40.81
4:10:12,-0.97,0.41,-0.22,25.97,-20.02,44.45
4:10:12,-0.86,0.36,-0.33,17.78,-4.41,34.72
4:10:12,-0.78,0.29,-0.39,6.23,-9.45,34.51
4:10:12,-0.93,0.3,-0.47,-22.33,-32.27,51.03
4:10:12,-1.12,0.37,-0.49,-40.46,-38.36,61.32
4:10:12,-1.24,0.48,-0.51,-32.62,-25.83,51.24
4:10:12,-1.16,0.53,-0.48,4.13,-0.21,28.28
4:10:12,-0.95,0.49,-0.42,10.64,17.57,18.06
4:10:12,-0.82,0.44,-0.39,-0.77,20.37,17.29
4:10:12,-0.76,0.44,-0.34,-14.91,18.27,20.79
4:10:12,-0.82,0.46,-0.34,-20.23,19.18,26.6
4:10:12,-0.94,0.49,-0.35,-12.74,24.99,33.88
4:10:12,-1.05,0.56,-0.37,0.56,31.57,36.33
4:10:12,-1.1,0.59,-0.36,19.25,36.05,29.05
4:10:12,-1.08,0.54,-0.34,46.62,34.65,16.31
4:10:12,-1.01,0.44,-0.3,67.83,22.61,9.1
4:10:12,-0.99,0.38,-0.25,72.59,9.38,6.51
4:10:12,-1.02,0.31,-0.23,67.27,-1.82,7.07
4:10:12,-1.07,0.28,-0.24,62.16,-11.76,9.31
4:10:12,-1.1,0.31,-0.24,53.76,-19.74,7.49
4:10:12,-1.06,0.34,-0.2,41.09,-18.34,-0.49
4:10:12,-0.97,0.34,-0.17,24.43,-5.95,-9.8
4:10:12,-0.89,0.33,-0.2,2.17,4.69,-15.89
4:10:12,-0.84,0.32,-0.24,-21.84,7.63,-17.5
4:10:12,-0.82,0.35,-0.27,-41.23,7.35,-19.6
4:10:12,-0.81,0.41,-0.29,-51.17,11.9,-23.03
4:10:12,-0.81,0.44,-0.33,-56.7,25.55,-24.36
4:10:12,-0.81,0.48,-0.36,-54.53,37.17,-24.85
4:10:12,-0.8,0.5,-0.38,-46.41,45.92,-27.51
4:10:12,-0.78,0.48,-0.38,-29.96,49.28,-29.05
4:10:12,-0.76,0.45,-0.36,-9.73,47.25,-24.92
4:10:12,-0.72,0.45,-0.31,5.39,42.42,-15.12
4:10:12,-0.72,0.47,-0.28,17.08,36.47,-9.73
4:10:12,-0.75,0.45,-0.27,36.26,22.19,-3.99
4:10:12,-0.77,0.46,-0.23,63.98,-9.45,7.63
4:10:12,-0.76,0.53,-0.15,78.33,-26.18,18.27
4:10:12,-0.75,0.61,-0.07,65.31,-22.47,18.2
4:10:12,-0.77,0.64,-0.02,19.18,-3.5,6.09
4:10:12,-0.84,0.55,-0.08,16.45,7.77,-1.54
4:10:12,-0.86,0.49,-0.11,6.51,8.61,-3.43
4:10:12,-0.85,0.45,-0.25,-0.07,7,-5.39
4:10:12,-0.85,0.41,-0.15,-0.91,6.16,-8.33
4:10:12,-0.87,0.37,-0.17,3.15,5.39,-9.66
4:10:12,-0.91,0.36,-0.2,8.54,4.62,-10.78
4:10:12,-0.96,0.37,-0.24,12.39,0.42,-13.37
4:10:12,-1,0.36,-0.26,15.33,-7.35,-14.91
4:10:12,-0.99,0.35,-0.26,17.36,-15.89,-16.45
4:10:12,-0.94,0.33,-0.22,19.6,-22.05,-17.5
4:10:12,-0.89,0.35,-0.19,19.74,-21.21,-21.63
4:10:12,-0.84,0.36,-0.18,11.27,-19.95,-23.59
4:10:12,-0.78,0.36,-0.17,-5.53,-17.29,-24.43
4:10:12,-0.74,0.38,-0.17,-16.87,-12.67,-25.9
4:10:12,-0.74,0.4,-0.19,-28.56,-9.52,-25.97
4:10:12,-0.78,0.43,-0.22,-40.04,-7.84,-25.41
4:10:12,-0.8,0.44,-0.24,-41.02,-5.04,-21.56
4:10:12,-0.81,0.45,-0.25,-34.3,-0.84,-18.55
4:10:12,-0.8,0.49,-0.26,-27.51,1.12,-18.83
4:10:12,-0.76,0.48,-0.25,-23.38,1.82,-17.36
4:10:12,-0.71,0.44,-0.24,-15.47,2.24,-13.93
4:10:12,-0.67,0.39,-0.24,-1.19,-0.35,-9.31
4:10:12,-0.66,0.42,-0.24,1.82,-4.97,-4.9
4:10:12,-0.67,0.43,-0.24,-1.05,-9.24,0.21
4:10:12,-0.71,0.45,-0.24,1.89,-10.99,4.48
4:10:12,-0.76,0.48,-0.25,8.19,-12.39,8.47
4:10:12,-0.79,0.52,-0.25,14.63,-13.86,8.4
4:10:12,-0.78,0.52,-0.25,18.2,-14.77,5.74
4:10:12,-0.75,0.46,-0.25,23.17,-17.57,8.68
4:10:12,-0.73,0.44,-0.24,28.28,-23.52,11.27
4:10:12,-0.73,0.41,-0.2,26.46,-30.94,8.89
4:10:12,-0.74,0.39,-0.16,22.47,-35.98,8.96
4:10:12,-0.74,0.38,-0.13,18.62,-36.47,10.64
4:10:12,-0.72,0.39,-0.12,14.21,-32.41,17.29
4:10:12,-0.73,0.45,-0.17,8.61,-30.59,20.72
4:10:12,-0.74,0.49,-0.21,0.07,-32.06,17.22
4:10:12,-0.75,0.5,-0.23,-10.01,-38.36,16.66
4:10:12,-0.72,0.48,-0.22,-12.04,-43.12,19.46
4:10:12,-0.66,0.47,-0.2,-0.49,-48.51,27.3
4:10:12,-0.61,0.5,-0.18,3.99,-56.77,34.58
4:10:12,-0.6,0.53,-0.15,-3.64,-58.59,35.7
4:10:12,-0.62,0.54,-0.13,-18.48,-54.32,30.03
4:10:12,-0.68,0.53,-0.14,-34.3,-49.77,28.35
4:10:12,-0.77,0.51,-0.16,-37.31,-50.19,31.78
4:10:12,-0.85,0.5,-0.18,-27.65,-58.94,44.31
4:10:12,-0.96,0.54,-0.18,-8.33,-73.36,63.07
4:10:12,-1.07,0.61,-0.17,15.61,-91.21,84.21
4:10:12,-1.19,0.68,-0.09,37.31,-116.76,101.5
4:10:12,-1.44,0.83,0.25,61.04,-134.26,105.21
4:10:12,-1.59,1.12,0.77,27.93,-110.25,80.85
4:10:12,-1.51,1.12,0.78,-102.69,-52.08,58.45
4:10:12,-1.28,0.73,0.13,-141.12,-35,64.4
4:10:12,-1.15,0.44,-0.24,-125.37,-52.57,83.72
4:10:12,-1.11,0.41,-0.29,-89.04,-63.14,106.19
4:10:12,-1.25,0.51,-0.17,-63.77,-58.52,118.72
4:10:12,-1.51,0.57,-0.04,-46.76,-52.08,117.11
4:10:12,-1.71,0.56,0.02,-34.02,-51.66,103.32
4:10:12,-1.68,0.57,-0.04,-30.45,-55.58,91.14
4:10:12,-1.47,0.52,-0.12,-27.65,-55.79,80.5
4:10:12,-1.2,0.53,-0.17,-15.82,-59.29,73.57
4:10:12,-0.89,0.52,-0.12,-8.82,-58.17,67.62
4:10:12,-0.77,0.47,-0.06,-3.57,-42.98,62.23
4:10:12,-0.74,0.44,-0.05,6.93,-26.18,54.25
4:10:12,-0.81,0.48,0,1.89,-18.76,44.8
4:10:12,-0.84,0.46,0.01,-1.05,-12.6,36.75
4:10:12,-0.82,0.44,0.12,1.68,-8.82,32.55
4:10:12,-0.73,0.47,0.01,0,-1.89,28.42
4:10:12,-0.67,0.48,0.01,-0.98,5.18,23.31
4:10:12,-0.65,0.48,0.04,-2.45,8.96,19.81
4:10:12,-0.63,0.49,0.08,-4.41,12.95,16.03
4:10:12,-0.62,0.5,0.09,-4.69,19.6,13.3
4:10:12,-0.64,0.53,0.11,-6.09,24.01,10.01
4:10:12,-0.67,0.54,0.14,-5.81,27.93,4.83
4:10:12,-0.7,0.51,0.14,-5.25,30.66,-0.14
4:10:12,-0.71,0.47,0.12,-5.6,33.53,-4.27
4:10:12,-0.69,0.41,0.07,-7.35,33.88,-7.91
4:10:12,-0.69,0.31,0.05,-7.7,31.5,-10.29
4:10:12,-0.7,0.26,0.05,-7.07,28.49,-14.84
4:10:12,-0.73,0.24,0.07,-3.78,27.79,-20.02
4:10:12,-0.76,0.24,0.09,-0.35,28.14,-25.27
4:10:12,-0.78,0.26,0.09,5.74,27.79,-29.68
4:10:12,-0.79,0.31,0.08,13.44,28,-34.3
4:10:12,-0.78,0.4,0.09,17.78,29.47,-37.24
4:10:12,-0.79,0.46,0.08,16.24,28.98,-38.78
4:10:12,-0.79,0.48,0.07,13.79,29.12,-39.62
4:10:12,-0.78,0.47,0.04,20.16,28.07,-38.43
4:10:12,-0.76,0.46,0.02,33.67,27.3,-36.68
4:10:12,-0.77,0.49,0.01,47.74,24.92,-34.44
4:10:12,-0.78,0.54,0.05,54.25,17.78,-33.88
4:10:12,-0.76,0.57,0.1,53.83,12.25,-32.9
4:10:12,-0.75,0.6,0.12,45.99,10.71,-33.74
4:10:12,-0.74,0.58,0.11,36.54,11.13,-36.26
4:10:12,-0.74,0.56,0.08,31.57,13.51,-40.04
4:10:12,-0.75,0.54,0.06,24.99,13.86,-43.75
4:10:12,-0.73,0.54,0.06,18.41,15.33,-47.39
4:10:12,-0.71,0.55,0.06,7.63,22.19,-49.84
4:10:12,-0.71,0.57,0.07,-1.75,28.42,-51.1
4:10:12,-0.71,0.57,0.07,-9.45,33.04,-51.73
4:10:12,-0.7,0.57,0.07,-14.07,35.7,-51.1
4:10:12,-0.7,0.55,0.06,-16.17,37.38,-48.16
4:10:12,-0.7,0.52,0.05,-20.37,38.01,-44.1
4:10:12,-0.7,0.52,0.03,-28.21,36.96,-41.3
4:10:12,-0.69,0.47,0.02,-32.27,37.38,-38.92
4:10:12,-0.69,0.43,-0.02,-32.41,40.11,-37.38
4:10:12,-0.72,0.39,-0.05,-26.11,43.33,-36.47
4:10:12,-0.73,0.35,-0.06,-17.08,47.88,-37.24
4:10:12,-0.71,0.35,-0.06,-9.52,56.07,-40.04
4:10:12,-0.69,0.35,-0.09,-2.17,60.9,-42.07
4:10:12,-0.68,0.38,-0.11,-0.07,62.37,-42
4:10:12,-0.65,0.4,-0.1,1.05,64.4,-41.37
4:10:12,-0.63,0.42,-0.07,0.77,67.55,-44.8
4:10:12,-0.61,0.41,-0.04,7.56,74.62,-44.1
4:10:12,-0.63,0.39,-0.01,22.96,80.85,-43.47
4:10:12,-0.7,0.38,0.04,42.35,75.88,-37.73
4:10:12,-0.8,0.39,0.13,54.46,59.15,-32.2
4:10:12,-0.88,0.48,0.22,38.36,42.84,-30.8
4:10:12,-0.86,0.53,0.13,13.86,36.54,-29.33
4:10:12,-0.8,0.51,0.01,8.4,35.07,-26.81
4:10:12,-0.77,0.52,-0.08,17.85,41.23,-25.27
4:10:12,-0.85,0.56,-0.13,28.49,46.69,-24.5
4:10:12,-0.95,0.6,-0.16,35.7,50.26,-20.65
4:10:12,-1.08,0.62,-0.21,45.01,52.01,-5.81
4:10:12,-1.34,0.66,-0.23,70.56,40.88,17.57
4:10:12,-1.51,0.83,-0.29,96.53,33.18,40.39
4:10:12,-1.27,0.99,-0.37,83.51,30.1,26.53
4:10:12,-1.2,0.84,-0.35,55.23,14.07,12.74
4:10:12,-1.11,0.69,-0.32,43.05,-7.98,24.92
4:10:12,-1.12,0.69,-0.33,74.27,-50.54,54.04
4:10:12,-1.02,0.79,-0.18,108.22,-68.39,89.6
4:10:12,-0.91,0.98,-0.03,81.62,-30.24,86.24
4:10:12,-0.98,0.96,-0.18,39.06,-4.76,61.81
4:10:12,-1.07,0.83,-0.25,13.16,-7.7,55.09
4:10:12,-1.05,0.73,-0.24,-1.05,-1.47,43.19
4:10:12,-1.06,0.58,-0.28,-15.47,7,33.39
4:10:12,-1.03,0.41,-0.3,-22.75,12.18,30.24
4:10:12,-1.08,0.35,-0.37,-23.38,10.22,25.62
4:10:12,-1.34,0.37,-0.41,-21.91,2.8,16.73
4:10:12,-1.39,0.41,-0.39,-26.32,3.71,2.66
4:10:12,-1.44,0.41,-0.32,-39.62,16.03,-15.68
4:10:12,-1.33,0.27,-0.29,-45.43,32.69,-27.37
4:10:12,-1.18,0.16,-0.34,-38.99,41.37,-25.55
4:10:12,-1.02,0.08,-0.38,-22.82,28.35,-16.52
4:10:12,-0.91,0.09,-0.38,-4.62,10.99,-7.98
4:10:12,-0.84,0.16,-0.4,-5.6,-5.53,-4.27
4:10:12,-0.8,0.2,-0.42,-5.81,-17.01,-4.41
4:10:12,-0.78,0.21,-0.46,-1.96,-21,7.21
4:10:12,-0.78,0.23,-0.5,21.77,-23.94,15.19
4:10:12,-0.77,0.28,-0.5,44.1,-25.48,12.18
4:10:12,-0.81,0.34,-0.46,51.24,-20.58,7.35
4:10:12,-0.87,0.39,-0.39,38.01,-7.28,0.49
4:10:12,-0.88,0.39,-0.32,17.85,33.39,-7.35
4:10:12,-0.86,0.37,-0.27,0.07,45.5,-16.17
4:10:12,-0.82,0.37,-0.26,-14.63,61.25,-22.4
4:10:12,-0.82,0.38,-0.27,-27.72,66.92,-24.29
4:10:12,-0.85,0.4,-0.27,-36.82,66.08,-25.06
4:10:12,-0.88,0.43,-0.27,-38.43,63.14,-24.29
4:10:12,-0.88,0.43,-0.26,-34.72,59.01,-20.79
4:10:12,-0.86,0.45,-0.25,-25.97,52.5,-18.62
4:10:12,-0.83,0.46,-0.25,-14.14,41.58,-16.94
4:10:12,-0.8,0.47,-0.25,0.07,26.04,-13.79
4:10:12,-0.78,0.51,-0.23,9.8,8.75,-5.81
4:10:12,-0.78,0.54,-0.2,13.3,-7.7,0.98
4:10:12,-0.78,0.56,-0.14,14.91,-35.28,6.37
4:10:12,-0.78,0.58,-0.11,14.28,-18.2,9.31
4:10:12,-0.78,0.58,-0.11,11.27,-17.57,10.43
4:10:12,-0.79,0.54,-0.16,7.84,-17.92,9.73
4:10:12,-0.79,0.51,-0.19,2.1,-17.5,8.68
4:10:12,-0.79,0.45,-0.21,-1.4,-16.24,6.86
4:10:12,-0.78,0.4,-0.23,-1.26,-16.8,6.58
4:10:12,-0.75,0.37,-0.23,-0.07,-18.34,6.37
4:10:12,-0.72,0.36,-0.23,1.82,-19.11,4.76
4:10:12,-0.71,0.37,-0.23,-0.56,-20.72,2.24
4:10:12,-0.76,0.4,-0.24,-8.33,-24.29,0.21
4:10:12,-0.84,0.43,-0.24,-15.12,-26.25,-1.54
4:10:12,-0.91,0.44,-0.24,-17.01,-25.2,-3.57
4:10:12,-0.94,0.44,-0.23,-15.33,-22.68,-7.42
4:10:12,-0.92,0.43,-0.21,-13.44,-20.37,-13.09
4:10:12,-0.86,0.4,-0.19,-12.53,-18.69,-17.78
4:10:12,-0.82,0.4,-0.19,-15.19,-20.02,-21.56
4:10:12,-0.81,0.39,-0.2,-18.48,-22.54,-21.77
4:10:12,-0.82,0.39,-0.21,-21.42,-25.2,-21.91
4:10:12,-0.81,0.38,-0.21,-20.51,-28.07,-20.51
4:10:12,-0.76,0.36,-0.2,-17.92,-29.68,-19.74
4:10:12,-0.69,0.35,-0.18,-13.44,-27.3,-20.37
4:10:12,-0.6,0.33,-0.17,-9.24,-23.17,-16.8
4:10:12,-0.54,0.35,-0.18,-14.28,-19.74,-10.36
4:10:12,-0.53,0.43,-0.22,-32.83,-23.8,-6.3
4:10:12,-0.56,0.48,-0.26,-69.51,-29.26,-5.81
4:10:12,-0.6,0.55,-0.27,-71.61,-29.61,-4.55
4:10:12,-0.61,0.58,-0.26,-76.51,-21.21,-1.4
4:10:12,-0.59,0.57,-0.27,-68.04,-8.05,8.61
4:10:12,-0.55,0.57,-0.31,-56.7,0.49,21.28
4:10:12,-0.48,0.57,-0.31,-44.17,3.5,31.01
4:10:12,-0.41,0.54,-0.3,-28.42,4.34,40.11
4:10:12,-0.37,0.58,-0.34,-16.94,1.12,44.8
4:10:12,-0.4,0.6,-0.4,-9.59,-12.6,47.88
4:10:12,-0.47,0.66,-0.41,9.1,-49.91,55.02
4:10:12,-0.63,0.69,-0.41,28.07,-54.18,71.47
4:10:12,-0.82,0.64,-0.41,73.5,-79.87,107.45
4:10:12,-1.03,0.6,-0.41,191.87,-125.44,156.59
4:10:12,-1.13,0.67,-0.36,265.65,-179.97,211.75
4:10:12,-1.16,1.13,-0.04,270.27,-225.89,246.68
4:10:12,-1.38,1.54,0.64,117.39,-287.63,229.95
4:10:12,-1.08,1.73,1.63,9.03,-108.22,170.73
4:10:12,-1.15,1.82,0.89,-107.38,31.01,93.52
4:10:12,-1.15,1.22,-0.09,-150.78,31.29,84.77
4:10:12,-1.04,0.81,-0.5,-139.79,-15.96,99.33
4:10:12,-0.98,0.66,-0.49,-95.34,-40.25,111.23
4:10:12,-1.06,0.67,-0.31,-66.78,-40.46,118.79
4:10:12,-1.2,0.72,-0.13,-60.41,-44.73,111.58
4:10:12,-1.2,0.69,0.06,-73.64,-35.84,100.03
4:10:12,-1.15,0.63,0.01,-76.58,-24.15,86.59
4:10:12,-1.17,0.6,-0.1,-65.73,-18.69,69.44
4:10:12,-1.17,0.55,-0.12,-39.2,-17.01,52.64
4:10:12,-1.09,0.54,-0.06,-29.4,-12.67,42.63
4:10:12,-0.88,0.48,-0.01,-34.23,16.73,30.1
4:10:12,-0.72,0.35,-0.02,-33.04,12.81,19.81
4:10:12,-0.7,0.29,-0.07,-19.74,17.85,22.05
4:10:12,-0.75,0.44,-0.04,1.47,20.93,26.04
4:10:12,-0.8,0.67,0.04,7.77,22.82,23.52
4:10:12,-0.86,0.77,0.09,4.48,24.29,15.61
4:10:12,-0.87,0.78,0.12,-1.96,22.26,10.08
4:10:12,-0.79,0.7,0.13,-10.43,20.58,5.39
4:10:12,-0.74,0.58,0.11,-22.33,19.46,-2.1
4:10:12,-0.74,0.42,0.07,-20.16,16.94,-5.46
4:10:12,-0.73,0.36,0.07,-11.27,14.7,-8.82
4:10:12,-0.7,0.32,0.07,-1.61,16.1,-13.44
4:10:12,-0.68,0.3,0.08,8.05,15.89,-16.03
4:10:12,-0.66,0.38,0.09,11.27,17.22,-18.27
4:10:12,-0.68,0.48,0.1,10.78,17.64,-20.51
4:10:12,-0.69,0.52,0.08,12.46,16.73,-20.86
4:10:12,-0.68,0.56,0.06,18.2,15.54,-21.49
4:10:12,-0.66,0.61,0.05,23.8,14.63,-23.24
4:10:12,-0.65,0.66,0.07,27.44,13.58,-24.78
4:10:12,-0.64,0.67,0.09,29.61,14.28,-25.55
4:10:12,-0.64,0.68,0.09,34.93,14.63,-26.11
4:10:12,-0.63,0.71,0.1,38.92,13.58,-26.11
4:10:12,-0.61,0.73,0.12,37.45,13.3,-27.23
4:10:12,-0.59,0.71,0.12,32.06,14.56,-27.72
4:10:12,-0.61,0.69,0.09,25.48,17.08,-26.25
4:10:12,-0.66,0.67,0.04,20.09,16.66,-26.6
4:10:12,-0.67,0.67,0.01,14.7,14.98,-26.88
4:10:12,-0.65,0.65,0,12.18,13.72,-26.46
4:10:12,-0.65,0.65,-0.02,12.04,11.06,-27.02
4:10:12,-0.65,0.64,0,11.83,8.68,-27.93
4:10:12,-0.65,0.63,0.01,11.41,8.26,-30.45
4:10:12,-0.67,0.6,0.03,10.57,8.47,-33.81
4:10:12,-0.69,0.56,0.03,9.73,8.89,-38.01
4:10:12,-0.71,0.53,0.02,6.51,11.27,-41.93
4:10:12,-0.72,0.51,-0.01,3.71,12.67,-46.06
4:10:12,-0.71,0.52,-0.03,-0.56,14.42,-50.19
4:10:12,-0.71,0.55,-0.03,-3.78,15.54,-54.32
4:10:12,-0.7,0.57,-0.01,-6.65,19.74,-56.7
4:10:12,-0.68,0.61,0.02,-10.36,23.52,-58.8
4:10:12,-0.66,0.65,0.04,-14.77,27.86,-59.43
4:10:12,-0.64,0.67,0.05,-20.44,31.85,-60.41
4:10:12,-0.64,0.69,0.04,-27.16,34.3,-60.76
4:10:12,-0.63,0.69,0.04,-32.69,36.68,-60.62
4:10:12,-0.65,0.68,0.03,-35.07,38.99,-58.24
4:10:12,-0.66,0.68,0.03,-34.72,45.85,-55.3
4:10:12,-0.67,0.67,0,-27.58,51.24,-52.99
4:10:12,-0.66,0.68,-0.04,-15.26,51.73,-52.5
4:10:12,-0.64,0.65,-0.03,-5.88,47.67,-48.23
4:10:12,-0.6,0.64,-0.02,2.24,45.71,-41.65
4:10:12,-0.56,0.61,0,7.84,43.89,-36.75
4:10:12,-0.53,0.63,0.01,8.05,46.48,-30.87
4:10:12,-0.52,0.56,0.01,9.52,48.93,-29.75
4:10:12,-0.52,0.49,0,16.31,42.07,-23.24
4:10:12,-0.54,0.48,0.04,18.62,32.2,-19.81
4:10:12,-0.53,0.46,0.12,15.89,26.46,-17.15
4:10:12,-0.54,0.42,0.16,6.09,25.55,-14.28
4:10:12,-0.54,0.42,0.14,3.22,27.86,-9.03
4:10:12,-0.57,0.42,0.08,5.39,32.27,-8.82
4:10:12,-0.6,0.46,-0.08,11.62,29.26,-8.54
4:10:12,-0.57,0.43,-0.17,21.84,24.08,-3.01
4:10:12,-0.56,0.41,-0.18,38.78,23.52,-1.4
4:10:12,-0.57,0.39,-0.15,70.7,26.74,-1.96
4:10:12,-0.64,0.41,-0.08,68.67,33.18,-8.26
4:10:12,-0.84,0.53,0.01,59.22,42.28,-21.63
4:10:12,-1.26,0.8,0.16,29.05,58.31,-40.25
4:10:12,-1.78,1.04,0.06,2.1,66.71,-45.29
4:10:12,-1.88,1.01,-0.49,31.64,63.56,-6.72
4:10:12,-1.69,1.1,-0.67,76.3,41.58,16.73
4:10:12,-1.38,0.93,-0.54,90.51,1.05,21.35
4:10:12,-1.1,0.73,-0.34,91.49,-61.95,46.97
4:10:12,-0.88,0.68,0.05,84,-154.49,80.5
4:10:12,-0.65,0.81,0.46,126.28,-99.54,88.41
4:10:12,-0.89,0.94,0.26,122.22,-34.16,78.75
4:10:12,-1.14,0.75,-0.16,66.57,-21.49,64.33
4:10:12,-1.34,0.79,-0.32,19.04,-12.53,42.84
4:10:12,-1.58,0.85,-0.4,4.34,3.5,30.38
4:10:12,-1.72,0.86,-0.46,3.57,8.96,18.9
4:10:12,-1.57,0.65,-0.45,2.59,-9.03,22.61
4:10:12,-1.13,0.53,-0.32,6.37,-17.22,30.17
4:10:12,-0.87,0.49,-0.29,5.11,-21.42,21.77
4:10:12,-0.67,0.37,-0.28,-2.87,-25.41,10.22
4:10:12,-0.54,0.26,-0.33,-11.83,-26.95,11.76
4:10:12,-0.46,0.18,-0.42,-22.05,-28.21,24.85
4:10:12,-0.48,0.16,-0.55,-26.81,-30.03,41.86
4:10:12,-0.59,0.24,-0.75,-17.71,-35.42,44.73
4:10:12,-0.77,0.35,-0.84,5.39,-39.9,31.15
4:10:12,-0.92,0.47,-0.81,22.75,-32.06,12.88
4:10:12,-1.02,0.74,-0.67,23.66,-1.54,-8.61
4:10:12,-1.06,0.66,-0.53,22.75,39.76,-20.58
4:10:12,-1.03,0.64,-0.42,36.05,71.19,-31.08
4:10:12,-0.93,0.63,-0.35,34.72,86.24,-30.45
4:10:12,-0.85,0.64,-0.28,26.32,88.62,-28.42
4:10:12,-0.82,0.61,-0.24,28.28,88.34,-22.4
4:10:12,-0.82,0.63,-0.21,41.37,78.4,-15.05
4:10:12,-0.85,0.71,-0.16,20.09,33.25,-4.76
4:10:12,-0.81,0.65,-0.01,-22.68,-47.32,14.98
4:10:12,-0.68,0.61,0.19,-13.09,-69.23,10.08
4:10:12,-0.56,0.52,0.16,23.1,-25.06,-10.01
4:10:12,-0.65,0.51,-0.06,21.35,8.89,-7.49
4:10:12,-0.74,0.54,-0.21,4.06,13.37,-10.71
4:10:12,-0.77,0.51,-0.27,-15.12,4.76,-14.7
4:10:12,-0.75,0.46,-0.28,-22.26,1.26,-13.86
4:10:12,-0.74,0.47,-0.31,-12.74,5.11,-12.32
4:10:12,-0.75,0.53,-0.32,-0.42,6.65,-10.85
4:10:12,-0.72,0.56,-0.28,8.19,7.14,-8.33
4:10:12,-0.68,0.57,-0.22,17.92,11.83,-6.02
4:10:12,-0.69,0.58,-0.19,20.72,11.55,-3.57
4:10:12,-0.72,0.6,-0.17,15.4,1.19,1.75
4:10:12,-0.72,0.6,-0.11,13.37,-16.24,6.02
4:10:12,-0.7,0.62,-0.07,17.15,-27.79,7.35
4:10:12,-0.67,0.66,-0.06,10.57,-31.15,7
4:10:12,-0.64,0.64,-0.08,0.7,-23.66,6.3
4:10:12,-0.61,0.62,-0.15,-9.87,-16.1,8.4
4:10:12,-0.61,0.6,-0.2,-14.35,-15.26,10.78
4:10:12,-0.61,0.59,-0.22,-15.68,-20.16,12.39
4:10:12,-0.62,0.56,-0.23,-13.3,-27.79,12.74
4:10:12,-0.64,0.51,-0.21,-4.48,-52.85,13.16
4:10:12,-0.62,0.48,-0.18,5.53,-38.01,12.6
4:10:12,-0.62,0.45,-0.16,11.62,-34.86,10.71
4:10:12,-0.64,0.43,-0.15,13.23,-33.04,8.12
4:10:12,-0.66,0.42,-0.16,10.92,-32.9,6.79
4:10:12,-0.7,0.43,-0.15,5.11,-34.23,4.48
4:10:12,-0.73,0.44,-0.16,-1.82,-35.56,-0.35
4:10:12,-0.73,0.43,-0.16,-6.09,-37.94,-3.01
4:10:12,-0.68,0.45,-0.14,-14.42,-38.78,-7.21
4:10:12,-0.59,0.46,-0.12,-26.6,-34.58,-11.62
4:10:12,-0.53,0.5,-0.12,-42.91,-27.65,-9.94
4:10:12,-0.47,0.54,-0.14,-60.27,-17.22,-2.66
4:10:12,-0.44,0.58,-0.17,-77.84,-5.74,9.73
4:10:12,-0.41,0.61,-0.23,-89.39,6.16,23.87
4:10:12,-0.37,0.63,-0.26,-94.57,12.81,37.03
4:10:12,-0.33,0.61,-0.29,-82.74,17.01,51.66
4:10:12,-0.29,0.58,-0.3,-51.24,10.78,65.94
4:10:12,-0.27,0.54,-0.35,-12.95,-11.2,91.07
4:10:12,-0.26,0.57,-0.33,24.29,-42,116.27
4:10:12,-0.31,0.7,-0.33,45.08,-89.04,133.7
4:10:12,-0.44,0.75,-0.31,53.06,-90.58,157.71
4:10:12,-0.61,0.8,-0.35,77.98,-107.38,203.84
4:10:12,-0.95,1.01,-0.31,121.59,-162.05,253.47
4:10:12,-1.27,1.53,-0.04,59.71,-269.5,269.01
4:10:12,-1,1.8,0.48,-21.28,-286.44,245.14
4:10:12,-0.59,2,1.49,-14.28,-108.64,178.71
4:10:12,-0.56,2.14,0.57,-116.48,41.09,113.47
4:10:12,-0.64,1.56,-0.2,-178.43,62.93,97.3
4:10:12,-0.76,1.1,-0.49,-172.34,35.98,104.44
4:10:12,-0.89,1.04,-0.5,-126.42,19.74,126.91
4:10:12,-1.19,1.18,-0.37,-75.25,6.37,131.32
4:10:12,-1.49,1.22,-0.06,-63.35,-11.2,116.55
4:10:12,-1.53,1.08,0.13,-86.73,-12.25,101.01
4:10:12,-1.33,0.81,-0.08,-84.49,-13.72,94.36
4:10:12,-1.02,0.63,-0.15,-47.81,-34.23,88.97
4:10:12,-0.71,0.6,0,-23.87,-37.66,89.04
4:10:12,-0.59,0.69,0.07,-24.01,-17.85,67.69
4:10:12,-0.63,0.63,-0.02,-15.33,-9.24,49.84
4:10:12,-0.68,0.69,-0.09,8.26,-10.57,47.74
4:10:12,-0.7,0.91,-0.04,24.43,-18.27,42.84
4:10:12,-0.6,1.05,0.07,21.98,-14.14,37.8
4:10:12,-0.49,1.03,0.06,14.77,-2.31,36.26
4:10:12,-0.46,0.94,0.05,11.48,7.84,33.04
4:10:12,-0.49,0.82,0.07,13.51,10.85,28.14
4:10:12,-0.5,0.74,0.09,17.92,13.23,24.78
4:10:12,-0.48,0.74,0.14,18.41,18.97,20.16
4:10:12,-0.49,0.73,0.15,16.38,22.4,14.84
4:10:12,-0.51,0.72,0.18,6.65,22.05,11.69
4:10:12,-0.5,0.66,0.15,0.42,23.45,5.18
4:10:12,-0.48,0.56,0.09,4.97,25.27,1.68
4:10:12,-0.49,0.52,0.05,13.37,23.45,-3.99
4:10:12,-0.52,0.48,0.03,20.93,19.32,-8.33
4:10:12,-0.55,0.46,0.02,26.81,16.45,-13.65
4:10:12,-0.57,0.43,0.01,30.87,15.54,-20.44
4:10:12,-0.6,0.4,-0.01,37.66,11.9,-26.18
4:10:12,-0.6,0.41,0,45.36,5.67,-31.85
4:10:12,-0.56,0.47,0.03,51.8,0.07,-35.42
4:10:12,-0.51,0.56,0.07,57.89,-1.75,-39.41
4:10:12,-0.48,0.64,0.08,66.71,-0.7,-42.84
4:10:12,-0.45,0.72,0.07,77.91,2.59,-46.9
4:10:12,-0.43,0.82,0.06,81.69,7.63,-51.45
4:10:12,-0.41,0.9,0.03,78.75,13.23,-55.65
4:10:12,-0.4,0.96,0,70,15.47,-57.33
4:10:12,-0.39,0.97,-0.04,58.24,16.8,-59.85
4:10:12,-0.37,0.91,-0.06,43.54,17.08,-61.32
4:10:12,-0.37,0.86,-0.06,32.62,18.97,-62.51
4:10:12,-0.38,0.82,-0.05,23.45,22.12,-64.05
4:10:12,-0.38,0.76,-0.03,16.94,28.28,-64.96
4:10:12,-0.39,0.75,-0.04,12.18,36.19,-66.5
4:10:12,-0.39,0.72,-0.05,8.68,40.46,-67.2
4:10:12,-0.41,0.69,-0.08,7.07,42.49,-66.22
4:10:12,-0.44,0.67,-0.09,5.11,44.24,-65.66
4:10:12,-0.46,0.67,-0.09,2.38,46.27,-64.82
4:10:12,-0.48,0.68,-0.09,0.91,46.41,-67.27
4:10:12,-0.48,0.71,-0.08,3.92,47.81,-68.6
4:10:12,-0.48,0.74,-0.08,8.47,51.38,-69.16
4:10:12,-0.46,0.77,-0.08,13.72,54.53,-66.92
4:10:12,-0.45,0.78,-0.1,15.05,55.3,-62.79
4:10:12,-0.43,0.81,-0.1,11.34,55.23,-61.81
4:10:12,-0.43,0.83,-0.1,5.88,53.2,-58.1
4:10:12,-0.42,0.78,-0.12,13.09,49.28,-54.53
4:10:12,-0.43,0.79,-0.1,22.12,43.75,-51.73
4:10:12,-0.4,0.76,-0.01,25.55,40.74,-50.61
4:10:12,-0.39,0.74,0.1,18.97,38.64,-50.47
4:10:12,-0.41,0.72,0.22,8.54,36.82,-48.65
4:10:12,-0.45,0.76,0.26,-5.04,39.76,-49.28
4:10:12,-0.47,0.77,0.23,-17.92,42.21,-50.12
4:10:12,-0.46,0.76,0.15,-19.32,41.86,-49.14
4:10:12,-0.43,0.73,0.08,-8.61,41.58,-46.2
4:10:12,-0.42,0.72,0.01,0.56,37.66,-37.59
4:10:12,-0.47,0.73,-0.05,11.27,33.6,-29.12
4:10:12,-0.63,0.85,-0.03,29.82,28.77,-28.21
4:10:12,-0.88,1.05,0.04,31.01,15.33,-21.7
4:10:12,-0.81,1.23,-0.18,18.55,16.03,-3.08
4:10:12,-0.71,1.23,-0.39,28.28,38.08,25.34
4:10:12,-0.71,1.2,-0.47,52.64,50.54,40.18
4:10:12,-0.68,1.1,-0.41,62.79,34.23,37.31
4:10:12,-0.61,0.87,-0.3,47.88,8.19,40.81
4:10:12,-0.52,0.71,-0.2,34.65,-10.92,54.74
4:10:12,-0.48,0.58,-0.15,33.11,-16.1,66.92
4:10:12,-0.64,0.77,-0.16,39.13,-9.87,65.73
4:10:12,-0.95,1.11,-0.26,25.48,7.63,78.54
4:10:12,-1.36,1.47,-0.42,25.34,31.99,119.35
4:10:12,-1.75,1.91,-0.56,19.88,48.09,172.2
4:10:12,-1.99,2.27,-0.65,21.91,-3.78,162.82
4:10:12,-1.38,1.79,-0.31,2.03,-104.23,75.11
4:10:12,-0.78,0.87,-0.11,-27.3,-133.35,22.54
4:10:12,-0.38,0.49,0.01,-47.32,-71.26,4.69
4:10:12,-0.26,0.29,-0.04,-57.26,-14.49,0.07
4:10:12,-0.2,0.24,-0.15,-75.67,25.27,16.03
4:10:12,-0.26,0.26,-0.34,-119.14,34.51,47.18
4:10:12,-0.43,0.39,-0.51,-145.88,14.91,48.16
4:10:12,-0.67,0.32,-0.83,-115.99,-28,38.01
4:10:12,-0.9,0.44,-1.15,-57.12,-93.38,42.91
4:10:12,-1.07,0.65,-1.16,4.27,-133.63,42.14
4:10:12,-1.03,0.9,-0.85,61.74,-112.28,30.31
4:10:12,-1.01,1.08,-0.58,87.43,-47.46,7.98
4:10:12,-0.93,1.04,-0.41,111.16,17.01,-15.61
4:10:12,-0.75,0.87,-0.28,109.76,67.06,-27.93
4:10:12,-0.66,0.71,-0.22,99.68,80.78,-30.24
4:10:12,-0.6,0.63,-0.18,89.53,77.14,-29.33
4:10:12,-0.55,0.6,-0.14,76.3,68.39,-29.19
4:10:12,-0.54,0.61,-0.13,56.7,56.91,-30.24
4:10:12,-0.52,0.65,-0.12,31.78,45.5,-34.72
4:10:12,-0.52,0.72,-0.09,7.49,41.44,-39.69
4:10:12,-0.53,0.76,-0.06,-16.38,47.88,-44.59
4:10:12,-0.53,0.74,-0.06,-37.31,63.63,-45.43
4:10:12,-0.52,0.69,-0.07,-37.31,72.87,-38.92
4:10:12,-0.55,0.72,-0.07,-36.4,55.93,-27.02
4:10:12,-0.58,0.73,-0.03,-28.98,-6.86,4.34
4:10:12,-0.48,0.76,0.03,5.67,-60.2,41.3
4:10:12,-0.38,0.9,0.05,38.5,-61.25,35.28
4:10:12,-0.36,0.97,-0.01,38.08,-32.55,9.38
4:10:12,-0.43,0.87,-0.12,13.09,-4.41,-4.9
4:10:12,-0.45,0.73,-0.16,-6.72,7,-5.95
4:10:12,-0.46,0.67,-0.19,-13.37,8.61,-4.83
4:10:12,-0.47,0.67,-0.21,-16.03,3.29,-9.1
4:10:12,-0.42,0.67,-0.19,-25.62,1.89,-9.94
4:10:12,-0.36,0.69,-0.19,-35.28,8.75,-7.42
4:10:12,-0.32,0.71,-0.22,-42.98,17.78,-2.24
4:10:12,-0.29,0.71,-0.24,-47.18,24.64,4.83
4:10:12,-0.27,0.7,-0.26,-45.78,28.07,14.35
4:10:12,-0.25,0.67,-0.27,-35.49,25.06,29.89
4:10:12,-0.22,0.68,-0.26,-30.94,19.32,37.87
4:10:12,-0.22,0.71,-0.27,-31.57,10.78,37.1
4:10:12,-0.37,0.76,-0.27,-29.47,-2.66,18.55
4:10:12,-0.32,0.81,-0.28,-27.79,-12.95,-9.66
4:10:12,-0.39,0.72,-0.28,-26.18,-23.45,-14.14
4:10:12,-0.4,0.64,-0.26,-19.81,-29.89,-0.77
4:10:12,-0.37,0.66,-0.25,-16.73,-32.55,6.3
4:10:12,-0.32,0.68,-0.25,-24.36,-35.14,6.37
4:10:12,-0.26,0.68,-0.23,-31.85,-32.62,6.86
4:10:12,-0.21,0.69,-0.23,-34.58,-24.15,11.27
4:10:12,-0.2,0.71,-0.25,-33.18,-16.17,18.62
4:10:12,-0.2,0.73,-0.31,-29.19,-15.75,28.91
4:10:12,-0.21,0.75,-0.33,-25.34,-24.08,33.39
4:10:12,-0.19,0.75,-0.31,-22.54,-30.8,33.88
4:10:12,-0.16,0.71,-0.29,-19.67,-29.12,38.57
4:10:12,-0.16,0.71,-0.29,-10.5,-25.2,52.5
4:10:12,-0.24,0.75,-0.34,12.39,-40.53,84.63
4:10:12,-0.37,0.9,-0.37,54.95,-91.91,131.46
4:10:12,-0.52,1.28,-0.26,53.13,-180.46,168.14
4:10:12,-0.45,1.52,-0.06,-11.27,-245.42,176.19
4:10:12,-0.29,1.51,0.16,-67.34,-253.61,171.36
4:10:12,-0.06,1.47,1.03,1.05,-162.82,146.72
4:10:12,-0.05,1.93,0.8,-15.96,-18.06,111.65
4:10:12,-0.15,1.79,0.29,-122.29,50.19,116.62
4:10:12,-0.36,1.58,-0.18,-156.45,57.75,134.75
4:10:12,-0.56,1.58,-0.4,-132.09,35.98,144.13
4:10:12,-0.73,1.58,-0.38,-97.44,10.22,149.17
4:10:12,-0.88,1.54,-0.26,-83.09,5.32,147.98
4:10:12,-1.02,1.47,-0.24,-77.63,13.23,131.95
4:10:12,-1.17,1.3,-0.29,-66.22,10.64,109.76
4:10:12,-1.13,1.12,-0.22,-53.55,11.34,88.06
4:10:12,-1,0.9,-0.15,-54.74,16.73,61.39
4:10:12,-0.77,0.59,-0.24,-35.56,5.95,47.46
4:10:12,-0.61,0.47,-0.22,-19.53,1.19,35.42
4:10:12,-0.5,0.45,-0.2,-9.03,0.98,26.81
4:10:12,-0.38,0.7,-0.13,5.25,2.38,20.3
4:10:12,-0.28,0.98,-0.01,10.15,7.63,14
4:10:12,-0.25,1.11,0.08,15.19,9.52,15.05
4:10:12,-0.29,1.17,0.17,17.57,9.1,11.97
4:10:12,-0.35,1.07,0.23,9.03,12.6,4.27
4:10:12,-0.39,0.92,0.23,2.17,14.35,-5.88
4:10:12,-0.39,0.76,0.19,-1.12,19.74,-15.75
4:10:12,-0.39,0.69,0.14,4.55,25.62,-23.94
4:10:12,-0.42,0.66,0.1,6.58,30.66,-30.24
4:10:12,-0.42,0.64,0.07,8.4,31.92,-34.79
4:10:12,-0.41,0.59,-0.02,23.1,27.58,-35.35
4:10:12,-0.4,0.67,0.02,30.03,23.31,-35.49
4:10:12,-0.42,0.73,0.02,29.19,22.05,-53.55
4:10:12,-0.47,0.73,-0.02,32.55,15.75,-36.19
4:10:12,-0.45,0.78,0,28.49,12.32,-39.06
4:10:12,-0.43,0.78,0,20.58,7.84,-42.14
4:10:12,-0.41,0.75,-0.01,18.55,1.96,-43.75
4:10:12,-0.39,0.75,-0.01,20.72,-2.31,-44.73
4:10:12,-0.35,0.78,0,25.2,-1.96,-47.39
4:10:12,-0.35,0.81,0,31.78,-0.77,-51.17
4:10:12,-0.35,0.85,-0.01,37.1,-2.31,-52.15
4:10:12,-0.34,0.91,-0.02,41.65,-4.76,-53.83
4:10:12,-0.31,0.95,-0.02,42.98,-8.61,-56.28
4:10:12,-0.25,0.95,0.01,40.11,-6.79,-58.87
4:10:12,-0.17,0.91,0.02,36.26,0.98,-58.24
4:10:12,-0.14,0.9,0.02,30.17,9.8,-57.54
4:10:12,-0.12,0.9,0.02,20.79,21.77,-58.17
4:10:12,-0.14,0.87,0.03,10.64,34.23,-56.98
4:10:12,-0.2,0.83,0.01,5.39,41.37,-56.28
4:10:12,-0.24,0.79,0.01,-0.42,45.92,-56.35
4:10:12,-0.26,0.74,0,-3.99,48.37,-57.47
4:10:12,-0.27,0.73,-0.03,-6.09,50.47,-58.8
4:10:12,-0.27,0.69,-0.04,-10.43,53.9,-57.89
4:10:12,-0.24,0.72,-0.06,-15.33,58.1,-56.28
4:10:12,-0.24,0.71,-0.08,-19.81,61.32,-53.13
4:10:12,-0.24,0.71,-0.11,-17.85,61.04,-47.95
4:10:12,-0.29,0.68,-0.15,-7.98,53.9,-44.03
4:10:12,-0.33,0.64,-0.15,6.37,44.38,-39.34
4:10:12,-0.37,0.64,-0.08,33.67,37.24,-36.12
4:10:12,-0.45,0.68,0.02,49.84,33.46,-35.98
4:10:12,-0.55,0.74,0.12,57.33,26.74,-36.54
4:10:12,-0.59,0.81,0.17,53.2,17.99,-38.01
4:10:12,-0.56,0.85,0.1,43.89,5.81,-35.98
4:10:12,-0.45,0.92,0.05,37.17,-1.19,-42.56
4:10:12,-0.34,0.94,-0.04,28.84,-5.46,-41.16
4:10:12,-0.23,0.9,-0.11,31.5,-11.2,-37.94
4:10:12,-0.19,0.84,-0.19,38.5,-17.5,-33.18
4:10:12,-0.14,0.84,-0.23,47.81,-25.62,-28.28
4:10:12,-0.1,0.78,-0.21,51.17,-28,-24.92
4:10:12,-0.11,0.77,-0.18,63.84,-17.08,-21.91
4:10:12,-0.21,0.91,-0.16,81.62,8.54,-19.53
4:10:12,-0.4,1.11,-0.13,99.68,36.12,-20.16
4:10:12,-0.93,1.54,0.31,119.28,22.75,-8.12
4:10:12,-0.9,1.76,0,85.12,-12.81,14.07
4:10:12,-0.45,1.44,-0.22,31.43,-51.17,18.9
4:10:12,-0.27,1.17,-0.14,31.57,-62.37,27.72
4:10:12,-0.24,1.26,0.09,40.95,-77.42,42.7
4:10:12,-0.43,1.33,0.15,39.69,-41.02,35.56
4:10:12,-0.61,1.08,-0.07,6.44,1.05,27.51
4:10:12,-0.67,0.81,-0.31,-6.09,13.72,28.35
4:10:12,-0.7,0.62,-0.45,-5.18,-2.03,34.02
4:10:12,-0.72,0.5,-0.51,1.75,-34.16,35.42
4:10:12,-0.76,0.66,-0.52,4.41,-53.2,34.3
4:10:12,-0.87,1.05,-0.57,-3.15,-47.04,23.24
4:10:12,-1,1.38,-0.55,-1.05,-24.99,2.45
4:10:12,-1.05,1.63,-0.42,3.43,17.08,-6.3
4:10:12,-0.97,1.63,-0.29,18.76,74.76,-8.96
4:10:12,-0.69,1.39,-0.25,31.43,123.27,-8.33
4:10:12,-0.53,1.14,-0.28,33.11,122.43,-0.91
4:10:12,-0.49,1.02,-0.36,9.66,43.33,16.45
4:10:12,-0.32,0.91,-0.24,-25.2,-65.03,27.16
4:10:12,-0.17,0.81,0.01,-45.78,-45.15,12.53
4:10:12,-0.27,0.66,-0.09,-47.53,8.4,11.06
4:10:12,-0.45,0.61,-0.36,-42.56,25.55,7.84
4:10:12,-0.58,0.5,-0.61,-20.3,-1.19,8.75
4:10:12,-0.63,0.43,-0.74,8.89,-40.53,10.71
4:10:12,-0.63,0.47,-0.72,30.52,-67.34,11.97
4:10:12,-0.67,0.59,-0.67,47.74,-69.86,5.39
4:10:12,-0.71,0.77,-0.51,52.71,-46.83,-2.94
4:10:12,-0.76,0.88,-0.38,54.04,2.03,-12.18
4:10:12,-0.71,0.96,-0.26,63.98,38.64,-27.58
4:10:12,-0.63,0.94,-0.15,67.48,66.78,-38.01
4:10:12,-0.57,0.93,-0.05,63.42,73.78,-40.11
4:10:12,-0.49,1,0.08,8.68,18.55,-24.01
4:10:12,-0.33,0.93,0.19,-13.58,-26.11,-18.13
4:10:12,-0.32,0.87,-0.04,-11.06,-23.52,-17.99
4:10:12,-0.38,0.8,-0.25,-6.3,-9.24,-13.02
4:10:12,-0.42,0.76,-0.39,-0.49,-8.47,-11.62
4:10:12,-0.39,0.72,-0.42,-0.49,-16.8,-10.71
4:10:12,-0.33,0.69,-0.4,-0.98,-21.63,-8.96
4:10:12,-0.3,0.76,-0.33,-1.61,-16.31,-10.64
4:10:12,-0.3,0.83,-0.28,3.22,4.55,-11.27
4:10:12,-0.35,0.88,-0.26,11.83,17.99,-10.64
4:10:12,-0.37,0.9,-0.25,18.62,22.61,-9.8
4:10:12,-0.37,0.87,-0.23,22.33,19.74,-5.04
4:10:12,-0.36,0.86,-0.2,22.61,8.4,-0.35
4:10:12,-0.34,0.86,-0.17,16.45,-13.72,4.34
4:10:12,-0.28,0.87,-0.11,10.78,-32.48,7.49
4:10:12,-0.25,0.89,-0.06,3.08,-32.97,8.19
4:10:12,-0.28,0.87,-0.1,-2.52,-25.83,10.22
4:10:12,-0.33,0.83,-0.16,-7.28,-20.79,15.05
4:10:12,-0.36,0.79,-0.2,-14,-20.79,17.01
4:10:12,-0.37,0.76,-0.2,-17.85,-23.66,18.2
4:10:12,-0.36,0.76,-0.19,-20.02,-23.66,17.85
4:10:12,-0.36,0.75,-0.18,-20.16,-21.35,15.96
4:10:12,-0.35,0.73,-0.16,-22.47,-16.87,14.21
4:10:12,-0.35,0.7,-0.15,-25.41,-10.78,11.13
4:10:12,-0.35,0.67,-0.14,-25.69,-4.76,6.51
4:10:12,-0.34,0.65,-0.13,-27.86,1.33,2.45
4:10:12,-0.34,0.62,-0.13,-30.24,5.81,-0.35
4:10:12,-0.32,0.62,-0.13,-33.04,8.75,-3.08
4:10:12,-0.3,0.62,-0.13,-35.35,11.41,-5.6
4:10:12,-0.28,0.65,-0.14,-40.46,14.98,-9.66
4:10:12,-0.26,0.67,-0.17,-47.04,16.94,-10.92
4:10:12,-0.26,0.68,-0.2,-51.38,14.63,-12.74
4:10:12,-0.27,0.69,-0.23,-52.5,8.47,-14.14
4:10:12,-0.27,0.67,-0.24,-48.65,-0.77,-13.37
4:10:12,-0.23,0.67,-0.24,-44.73,-4.48,-9.24
4:10:12,-0.2,0.68,-0.24,-46.34,-2.87,-5.88
4:10:12,-0.17,0.69,-0.26,-50.19,-0.28,-2.8
4:10:12,-0.16,0.74,-0.26,-55.79,4.41,-1.12
4:10:12,-0.17,0.78,-0.28,-55.3,8.19,-3.43
4:10:12,-0.17,0.79,-0.31,-47.18,10.43,-2.73
4:10:12,-0.16,0.77,-0.33,-31.15,10.01,7.98
4:10:12,-0.12,0.78,-0.33,-14.56,5.95,24.43
4:10:12,-0.11,0.86,-0.35,4.27,-3.01,47.74
4:10:12,-0.19,0.91,-0.48,57.54,-41.65,73.01
4:10:12,-0.41,1.29,-0.46,139.86,-181.93,123.06
4:10:12,-0.65,1.87,-0.08,77.77,-334.39,158.06
4:10:12,-0.35,1.85,0.59,-54.67,-351.82,160.09
4:10:12,-0.01,2,1.86,13.58,-118.86,118.23
4:10:12,-0.03,1.98,1.06,-117.6,61.25,101.29
4:10:12,-0.26,1.56,0.11,-185.22,104.16,121.45
4:10:12,-0.52,1.39,-0.59,-182.49,60.2,135.17
4:10:12,-0.68,1.36,-0.7,-144.69,8.26,146.16
4:10:12,-0.74,1.34,-0.51,-106.19,-7.35,155.33
4:10:12,-0.89,1.4,-0.37,-78.47,-0.91,149.17
4:10:12,-1.11,1.49,-0.31,-65.94,-1.61,133.7
4:10:12,-1.29,1.46,-0.23,-61.04,-3.92,116.34
4:10:12,-1.34,1.33,-0.19,-52.43,-2.8,94.36
4:10:12,-0.98,1.16,-0.23,-32.97,-20.86,87.29
4:10:12,-0.47,1.12,-0.05,-40.81,-24.92,83.44
4:10:12,-0.34,0.92,-0.04,-39.97,-18.2,72.45
4:10:12,-0.35,0.84,-0.04,-14.28,-16.59,66.36
4:10:12,-0.32,0.92,0.04,-11.41,-14.84,58.1
4:10:12,-0.26,1.11,0.1,-7.84,-1.4,50.05
4:10:12,-0.29,1.34,0.21,-7.98,10.29,40.67
4:10:12,-0.32,1.37,0.25,-24.22,17.43,29.19
4:10:12,-0.24,1.15,0.18,-42.49,29.26,22.68
4:10:12,-0.23,0.93,0.07,-45.64,39.62,12.32
4:10:12,-0.31,0.75,0.02,-41.86,38.22,7.56
4:10:12,-0.33,0.61,0.03,-30.17,31.92,5.6
4:10:12,-0.32,0.57,0.07,-21.7,30.45,2.1
4:10:12,-0.34,0.51,0.08,-11.48,29.89,-1.05
4:10:12,-0.38,0.58,0.14,-7.14,28.98,-5.53
4:10:12,-0.37,0.64,0.24,-32.9,34.79,-10.85
4:10:12,-0.4,0.47,0.1,-27.51,25.97,-8.12
4:10:12,-0.42,0.43,0.05,-10.5,17.08,-9.31
4:10:12,-0.45,0.45,0.04,3.36,7.21,-12.25
4:10:12,-0.48,0.46,0.06,15.26,-3.22,-16.17
4:10:12,-0.49,0.46,0.07,25.34,-11.69,-19.32
4:10:12,-0.49,0.62,0.08,31.36,-17.15,-23.66
4:10:12,-0.48,0.56,0.06,35.35,-22.26,-24.99
4:10:12,-0.46,0.6,0.05,41.3,-30.52,-26.04
4:10:12,-0.41,0.66,0.05,44.59,-34.79,-27.37
4:10:12,-0.35,0.72,0.03,46.41,-35.49,-31.22
4:10:12,-0.3,0.75,0.01,49,-35.56,-35.7
4:10:12,-0.24,0.77,0,51.66,-32.55,-41.72
4:10:12,-0.21,0.75,-0.01,52.99,-31.78,-49.07
4:10:12,-0.18,0.74,0.02,50.26,-28.7,-54.95
4:10:12,-0.17,0.78,0.05,41.16,-22.61,-61.88
4:10:12,-0.18,0.83,0.06,34.02,-15.75,-71.26
4:10:12,-0.18,0.89,0.05,27.86,-8.96,-78.68
4:10:12,-0.17,0.93,0.03,20.79,0,-82.46
4:10:12,-0.15,1,-0.01,20.72,7.21,-87.01
4:10:12,-0.12,0.98,-0.02,15.19,14.77,-85.61
4:10:12,-0.08,0.99,-0.05,14.7,21.98,-88.69
4:10:12,-0.01,0.93,-0.03,18.13,27.65,-81.69
4:10:12,-0.02,0.92,0,19.18,29.54,-76.09
4:10:12,-0.04,0.88,0.03,20.23,34.16,-73.36
4:10:12,-0.07,0.86,0.04,18.34,37.94,-68.67
4:10:12,-0.13,0.82,0.05,14.84,41.3,-63.14
4:10:12,-0.2,0.84,0.02,12.04,40.18,-60.55
4:10:12,-0.25,0.82,0,10.01,39.97,-59.92
4:10:12,-0.29,0.8,-0.01,11.41,41.23,-59.22
4:10:12,-0.31,0.81,-0.02,12.6,47.67,-61.6
4:10:12,-0.32,0.8,-0.04,18.2,52.43,-60.2
4:10:12,-0.32,0.8,-0.06,29.26,54.46,-60.97
4:10:12,-0.33,0.78,-0.05,48.79,52.92,-64.19
4:10:12,-0.32,0.81,0.06,61.81,50.12,-64.19
4:10:12,-0.29,0.91,0.14,71.75,42.42,-63.14
4:10:12,-0.22,1.02,0.18,78.33,28.77,-51.31
4:10:12,-0.14,1.11,0.19,70.21,14.84,-41.02
4:10:12,-0.1,1.07,0.2,59.08,5.81,-33.88
4:10:12,-0.14,1.01,0.19,56.35,1.26,-28.56
4:10:12,-0.16,0.97,0.22,58.38,7.49,-26.6
4:10:12,-0.28,1.01,0.19,65.17,25.69,-21.35
4:10:12,-0.54,1.13,0.09,71.75,38.92,-17.64
4:10:12,-0.78,1.38,-0.14,74.83,28,-12.74
4:10:12,-0.82,1.47,-0.37,78.33,-8.54,4.76
4:10:12,-0.71,1.4,-0.5,95.9,-41.37,28.84
4:10:12,-0.59,1.28,-0.41,102.34,-72.87,29.12
4:10:12,-0.57,1.07,-0.15,70.84,-83.23,11.97
4:10:12,-0.62,0.83,0.21,9.24,-81.13,1.54
4:10:12,-0.64,0.72,0.35,-4.13,-51.73,15.19
4:10:12,-0.63,0.96,0.06,0.91,1.82,29.12
4:10:12,-0.68,1.16,-0.2,10.43,34.3,30.66
4:10:12,-0.71,1.25,-0.31,12.88,49.14,29.54
4:10:12,-0.73,1.28,-0.39,4.13,42.7,24.01
4:10:12,-0.69,1.4,-0.42,-9.73,31.85,22.05
4:10:12,-0.62,1.53,-0.47,-18.34,20.51,19.46
4:10:12,-0.5,1.43,-0.46,-11.41,1.68,19.74
4:10:12,-0.34,1.22,-0.36,-10.99,-10.57,21.28
4:10:12,-0.29,0.93,-0.29,-28,-12.95,19.95
4:10:12,-0.38,0.7,-0.29,-42.42,-16.52,23.94
4:10:12,-0.5,0.62,-0.37,-52.22,-31.78,26.6
4:10:12,-0.58,0.58,-0.46,-50.68,-53.34,30.38
4:10:12,-0.61,0.57,-0.56,-32.27,-72.52,39.76
4:10:12,-0.57,0.58,-0.57,-5.88,-74.97,43.89
4:10:12,-0.55,0.61,-0.57,16.03,-65.59,39.2
4:10:12,-0.55,0.63,-0.59,35.7,-51.73,31.71
4:10:12,-0.62,0.74,-0.55,52.57,-39.69,3.5
4:10:12,-0.63,0.88,-0.41,60.2,-20.09,1.96
4:10:12,-0.63,1.04,-0.28,54.32,11.97,-16.1
4:10:12,-0.62,1.05,-0.21,51.87,46.76,-33.67
4:10:12,-0.57,0.97,-0.17,54.04,80.22,-42.49
4:10:12,-0.55,0.93,-0.17,55.58,91.49,-42.49
4:10:12,-0.52,0.92,-0.17,52.43,89.25,-42.63
4:10:12,-0.48,0.88,-0.17,51.17,78.82,-42.7
4:10:12,-0.42,0.8,-0.16,52.08,62.79,-37.24
4:10:12,-0.42,0.78,-0.18,46.76,23.66,-27.23
4:10:12,-0.35,0.75,-0.12,34.09,-43.61,-15.26
4:10:12,-0.22,0.78,0,18.27,-67.48,-6.79
4:10:12,-0.15,0.79,0.03,9.1,-41.16,-5.25
4:10:12,-0.16,0.8,-0.02,0.7,-6.16,-7.35
4:10:12,-0.21,0.82,-0.1,-14.84,13.93,-7.07
4:10:12,-0.25,0.87,-0.16,-25.97,21.07,-7.7
4:10:12,-0.31,0.89,-0.2,-24.78,22.61,-6.86
4:10:12,-0.38,0.89,-0.23,-13.79,16.8,-4.48
4:10:12,-0.43,0.85,-0.25,0,6.37,-4.34
4:10:12,-0.45,0.8,-0.25,8.47,-8.12,-3.29
4:10:12,-0.43,0.76,-0.2,11.06,-20.09,0.21
4:10:12,-0.38,0.78,-0.17,7.56,-22.19,-2.24
4:10:12,-0.33,0.78,-0.14,0,-17.85,-5.39
4:10:12,-0.27,0.78,-0.13,-4.55,-5.46,-8.89
4:10:12,-0.21,0.77,-0.13,-7.56,5.6,-9.45
4:10:12,-0.17,0.75,-0.14,-10.64,14.14,-7.98
4:10:12,-0.15,0.73,-0.15,-11.55,17.71,-4.13
4:10:12,-0.13,0.72,-0.17,-12.95,14.49,-0.35
4:10:12,-0.13,0.71,-0.19,-14.28,5.11,0.56
4:10:12,-0.14,0.69,-0.19,-16.45,-6.72,-0.35
4:10:12,-0.17,0.68,-0.17,-22.26,-14.77,1.19
4:10:12,-0.23,0.69,-0.17,-27.58,-17.99,4.41
4:10:12,-0.3,0.73,-0.18,-28.49,-20.09,6.16
4:10:12,-0.36,0.76,-0.18,-24.5,-23.1,7.21
4:10:12,-0.37,0.74,-0.18,-19.81,-26.6,10.43
4:10:12,-0.32,0.71,-0.15,-21.42,-28.21,15.75
4:10:12,-0.27,0.73,-0.14,-26.32,-30.38,19.6
4:10:12,-0.26,0.77,-0.15,-30.1,-36.75,21.7
4:10:12,-0.25,0.8,-0.15,-30.17,-45.78,24.78
4:10:12,-0.25,0.8,-0.14,-34.3,-56.63,26.25
4:10:12,-0.24,0.76,-0.11,-42.28,-69.93,28.91
4:10:12,-0.2,0.73,-0.08,-45.5,-75.46,35.56
4:10:12,-0.17,0.76,-0.07,-35.28,-67.06,46.62
4:10:12,-0.18,0.93,-0.11,-28.07,-55.37,52.85
4:10:12,-0.24,1.13,-0.16,-29.61,-60.83,55.86
4:10:12,-0.28,1.33,-0.15,-38.78,-80.64,66.78
4:10:12,-0.31,1.41,-0.11,-54.67,-110.95,87.71
4:10:12,-0.26,1.51,0.01,-61.81,-159.39,109.9
4:10:12,-0.08,1.6,0.26,-61.32,-126.98,125.44
4:10:12,0.02,1.8,0.59,-42.28,-36.05,126.14
4:10:12,-0.19,1.91,0.46,-116.27,31.08,122.5
4:10:12,-0.46,1.61,0.05,-152.81,53.13,134.61
4:10:12,-0.7,1.41,-0.31,-139.37,43.12,149.17
4:10:12,-0.86,1.38,-0.47,-114.52,24.92,144.48
4:10:12,-1.02,1.31,-0.51,-77.14,3.36,127.96
4:10:12,-1.19,1.28,-0.43,-45.01,-16.73,112.42
4:10:12,-1.38,1.18,-0.24,-11.13,-35.91,98.56
4:10:12,-1.42,1.03,-0.02,-11.83,-40.32,87.29
4:10:12,-0.91,0.93,-0.09,-13.37,-49.49,75.46
4:10:12,-0.36,1,-0.04,-0.91,-51.66,62.02
4:10:12,-0.13,1.1,0,10.5,-40.11,55.23
4:10:12,-0.11,1.2,-0.02,19.53,-28.98,42.42
4:10:12,-0.11,1.22,-0.02,23.94,-21.14,31.64
4:10:12,-0.06,1.22,0.05,21.35,-12.11,22.89
4:10:12,-0.04,1.14,0.13,20.23,-0.42,14.98
4:10:12,-0.12,1.06,0.18,13.44,10.5,5.6
4:10:12,-0.19,0.98,0.23,0.49,23.1,-0.49
4:10:12,-0.24,0.91,0.23,-16.17,36.61,-7.28
4:10:12,-0.28,0.81,0.16,-26.39,47.46,-12.32
4:10:12,-0.33,0.66,0.08,-22.47,48.37,-13.3
4:10:12,-0.35,0.6,0.09,-17.99,46.2,-16.03
4:10:12,-0.36,0.57,0.13,-22.54,43.54,-18.97
4:10:12,-0.43,0.47,0.1,-17.36,32.69,-17.64
4:10:12,-0.46,0.45,0.09,-6.72,23.45,-16.45
4:10:12,-0.48,0.41,0.05,6.44,13.16,-18.83
4:10:12,-0.5,0.48,0.06,17.5,4.13,-25.2
4:10:12,-0.46,0.47,0.04,28.07,-5.46,-28.28
4:10:12,-0.4,0.54,0.06,35.77,-11.76,-33.25
4:10:12,-0.32,0.59,0.08,36.54,-12.74,-37.31
4:10:12,-0.29,0.65,0.06,37.1,-11.97,-40.53
4:10:12,-0.27,0.7,0.05,39.13,-12.04,-43.12
4:10:12,-0.25,0.76,0.04,38.29,-11.55,-44.52
4:10:12,-0.23,0.79,0.04,40.6,-14.7,-46.13
4:10:12,-0.21,0.8,0.06,42,-15.33,-48.93
4:10:12,-0.17,0.78,0.05,43.26,-11.41,-51.59
4:10:12,-0.13,0.75,0.03,46.06,-6.93,-52.22
4:10:12,-0.12,0.77,0.01,49.91,-7.91,-53.55
4:10:12,-0.1,0.79,0.01,53.27,-10.01,-54.53
4:10:12,-0.07,0.82,0.01,53.55,-11.06,-54.25
4:10:12,-0.07,0.84,0.02,50.61,-14.28,-55.79
4:10:12,-0.04,0.84,0.03,42.28,-14.91,-56.49
4:10:12,-0.02,0.84,0.04,30.94,-10.71,-56.56
4:10:12,-0.01,0.83,0.07,24.15,-5.18,-60.76
4:10:12,-0.01,0.83,0.09,25.34,1.75,-63.35
4:10:12,-0.03,0.85,0.1,28.63,11.76,-62.72
4:10:12,-0.1,0.91,0.05,34.51,19.81,-61.88
4:10:12,-0.15,0.97,0.01,38.99,23.59,-63.07
4:10:12,-0.18,0.99,0,39.83,18.9,-64.96
4:10:12,-0.2,0.99,0.03,43.75,9.59,-66.29
4:10:12,-0.17,0.98,0.07,50.26,2.52,-65.31
4:10:12,-0.14,1.01,0.09,53.69,-4.2,-64.68
4:10:12,-0.1,1.04,0.1,55.93,-11.55,-60.97
4:10:12,-0.06,1.08,0.08,62.93,-19.11,-58.73
4:10:12,-0.04,1.09,0.12,70.56,-24.01,-53.83
4:10:12,-0.03,1.07,0.23,75.53,-30.73,-50.33
4:10:12,-0.05,1.07,0.37,73.29,-37.66,-40.18
4:10:12,-0.05,1.15,0.33,62.65,-39.97,-31.85
4:10:12,0.07,1.14,0.05,60.69,-40.39,-27.37
4:10:12,0.11,1,-0.15,83.09,-52.64,-33.81
4:10:12,0.06,0.94,-0.1,104.51,-35.91,-34.3
4:10:12,-0.36,1.42,-0.13,103.32,9.66,-46.34
4:10:12,-0.63,1.81,-0.29,38.71,50.47,-59.22
4:10:12,-0.64,1.79,-0.42,-25.41,105.49,-40.32
4:10:12,-0.6,1.35,-0.43,-16.8,151.69,-16.24
4:10:12,-0.56,1.02,-0.39,-5.88,162.12,-0.91
4:10:12,-0.53,0.67,-0.33,-12.81,126.91,22.96
4:10:12,-0.56,0.62,-0.28,-28.28,119.42,34.02
4:10:12,-0.7,0.86,-0.31,-49.14,108.08,47.32
4:10:12,-1.07,1.34,-0.47,-62.3,103.88,50.82
4:10:12,-1.5,1.73,-0.65,-51.87,100.38,33.53
4:10:12,-1.81,1.73,-0.82,-25.13,80.01,14.42
4:10:12,-1.81,1.33,-0.92,20.58,30.52,18.62
4:10:12,-1.59,0.92,-0.83,65.94,-30.1,32.9
4:10:12,-1.3,0.62,-0.7,112.14,-82.88,41.37
4:10:11,-1.01,-0.26,0.01,117.95,5.11,-4.69
4:10:11,-0.92,-0.14,0.09,87.85,8.61,1.19
4:10:11,-0.9,-0.01,0.04,40.53,22.96,4.27
4:10:11,-0.9,0.05,-0.08,-2.45,29.75,1.19
4:10:11,-0.9,0.05,-0.18,-28.98,24.36,-3.36
4:10:11,-0.9,0.06,-0.21,-41.44,14.63,-6.86
4:10:11,-0.91,0.08,-0.22,-46.34,6.37,-7.42
4:10:11,-0.99,0.1,-0.24,-46.48,1.96,-3.43
4:10:11,-1.05,0.12,-0.26,-42.21,2.17,-0.63
4:10:11,-1.05,0.15,-0.25,-31.71,4.55,-0.28
4:10:11,-0.99,0.17,-0.23,-17.01,7.42,0.35
4:10:11,-0.91,0.16,-0.21,-0.7,5.46,5.46
4:10:11,-0.87,0.16,-0.2,17.99,0,13.58
4:10:11,-0.88,0.19,-0.19,38.08,-5.18,17.36
4:10:11,-0.93,0.23,-0.16,41.37,-2.87,13.44
4:10:11,-0.99,0.2,-0.15,36.68,3.22,11.27
4:10:11,-1.02,0.18,-0.17,29.33,8.47,11.62
4:10:11,-1.03,0.2,-0.19,21.07,7.84,5.81
4:10:11,-1,0.15,-0.18,22.47,2.87,1.89
4:10:11,-0.96,0.13,-0.16,22.61,-0.77,3.22
4:10:11,-0.97,0.13,-0.15,23.94,-3.01,3.01
4:10:11,-0.98,0.15,-0.15,25.34,-3.29,0.28
4:10:11,-0.99,0.14,-0.13,25.62,-3.85,-1.96
4:10:11,-0.99,0.1,-0.13,27.09,-6.16,0.35
4:10:11,-1,0.12,-0.14,30.8,-8.82,0.49
4:10:11,-1.02,0.13,-0.14,28.21,-11.34,-1.61
4:10:11,-1.01,0.12,-0.15,23.03,-12.32,-1.54
4:10:11,-0.98,0.12,-0.15,17.5,-12.88,-3.01
4:10:11,-0.94,0.11,-0.14,12.18,-14.84,-4.9
4:10:11,-0.92,0.1,-0.13,7.91,-16.52,-4.69
4:10:11,-0.9,0.1,-0.13,5.39,-16.31,-3.29
4:10:11,-0.89,0.12,-0.13,1.12,-14.91,-2.17
4:10:11,-0.89,0.12,-0.14,-3.57,-13.51,-1.61
4:10:11,-0.88,0.12,-0.17,-9.1,-14.07,-2.1
4:10:11,-0.88,0.11,-0.18,-13.23,-17.43,-3.71
4:10:11,-0.9,0.08,-0.2,-14.84,-21.49,-4.69
4:10:11,-0.91,0.07,-0.19,-14.28,-23.38,-5.32
4:10:11,-0.91,0.07,-0.18,-13.37,-22.05,-8.61
4:10:11,-0.89,0.08,-0.18,-12.25,-20.02,-10.99
4:10:11,-0.87,0.1,-0.18,-13.93,-17.29,-12.81
4:10:11,-0.86,0.1,-0.19,-14.77,-16.1,-11.97
4:10:11,-0.88,0.11,-0.22,-11.83,-19.11,-10.99
4:10:11,-0.9,0.12,-0.21,-4.62,-21.91,-11.06
4:10:11,-0.88,0.12,-0.18,9.24,-23.24,-6.02
4:10:11,-0.85,0.08,-0.16,39.97,-33.39,6.44
4:10:11,-0.8,0.11,-0.12,83.37,-48.51,23.73
4:10:11,-0.73,0.19,-0.06,112.07,-52.57,35.21
4:10:11,-0.69,0.32,-0.02,105.07,-38.15,34.23
4:10:11,-0.72,0.37,-0.04,70.28,-23.87,20.58
4:10:11,-0.81,0.32,-0.1,21.35,-23.52,8.82
4:10:11,-0.85,0.25,-0.14,31.08,-37.17,10.01
4:10:11,-0.81,0.21,-0.11,42.28,-55.09,17.85
4:10:11,-0.76,0.21,-0.03,57.82,-59.29,30.1
4:10:11,-0.74,0.27,0.02,50.47,-48.93,37.1
4:10:11,-0.78,0.31,-0.02,28.42,-41.16,34.72
4:10:11,-0.83,0.32,-0.08,7.07,-43.33,28.84
4:10:11,-0.87,0.27,-0.11,-8.05,-54.67,22.4
4:10:11,-0.87,0.2,-0.08,-6.86,-67.34,22.82
4:10:11,-0.87,0.16,-0.01,14.56,-75.6,32.69
4:10:11,-0.94,0.19,0.01,37.52,-74.13,50.12
4:10:11,-0.99,0.26,-0.02,54.04,-74.06,74.2
4:10:11,-1.03,0.31,-0.06,59.78,-77.07,104.37
4:10:11,-1.12,0.32,-0.04,74.48,-82.25,135.66
4:10:11,-1.25,0.31,0.09,101.22,-82.25,179.9
4:10:11,-1.4,0.59,0.25,83.72,-79.31,195.72
4:10:11,-1.6,0.85,0.42,34.3,-65.03,183.05
4:10:11,-1.86,1.04,0.29,-72.87,-58.1,154.49
4:10:11,-2.02,0.92,0.08,-150.5,-59.71,123.34
4:10:11,-1.98,0.35,-0.11,-140.63,-53.69,102.34
4:10:11,-1.83,0.09,-0.27,-104.37,-52.22,89.18
4:10:11,-1.65,-0.13,-0.25,-59.36,-59.57,64.19
4:10:11,-1.36,-0.24,-0.13,-15.96,-47.46,46.13
4:10:11,-1.12,-0.31,-0.02,-2.31,-31.5,41.72
4:10:11,-0.93,-0.26,-0.04,-3.08,-22.61,52.64
4:10:11,-0.85,-0.16,-0.09,9.24,-16.87,57.89
4:10:11,-0.83,-0.02,-0.07,25.13,-7.35,52.15
4:10:11,-0.88,0.16,-0.05,32.41,0,41.86
4:10:11,-0.94,0.33,-0.01,30.17,1.05,35.63
4:10:11,-0.98,0.5,0.04,20.72,3.36,31.08
4:10:11,-1.01,0.62,0.06,7.56,10.08,27.86
4:10:11,-1.06,0.68,0.13,-3.43,16.03,16.73
4:10:11,-1.07,0.67,0.2,-22.26,17.43,3.64
4:10:11,-1.03,0.54,0.24,-52.99,16.59,-6.44
4:10:11,-0.88,0.34,0.2,-75.88,14.84,-13.23
4:10:11,-0.99,0.16,0.16,-79.73,15.26,-17.01
4:10:11,-0.98,0.06,0.15,-72.45,16.52,-19.46
4:10:11,-0.95,0.01,0.15,-63.91,17.29,-21.91
4:10:11,-0.89,-0.04,0.17,-56.98,19.11,-22.47
4:10:11,-0.86,-0.03,0.17,-52.22,19.04,-24.15
4:10:11,-0.84,-0.05,0.16,-44.17,18.34,-25.55
4:10:11,-0.84,-0.07,0.14,-29.4,19.11,-25.76
4:10:11,-0.85,-0.06,0.17,-14.14,17.85,-25.97
4:10:11,-0.85,-0.07,0.18,3.29,17.36,-27.44
4:10:11,-0.86,-0.04,0.18,34.02,17.01,-27.3
4:10:11,-0.85,0,0.16,26.46,17.43,-27.16
4:10:11,-0.85,0.05,0.13,34.51,18.41,-28.07
4:10:11,-0.85,0.1,0.11,43.47,19.95,-28.98
4:10:11,-0.87,0.17,0.1,49.98,22.47,-28.7
4:10:11,-0.89,0.25,0.11,51.66,24.01,-29.26
4:10:11,-0.91,0.31,0.12,49.28,22.54,-29.12
4:10:11,-0.9,0.36,0.14,44.45,22.61,-27.3
4:10:11,-0.89,0.38,0.14,40.11,23.73,-26.11
4:10:11,-0.88,0.39,0.14,35.77,24.78,-23.52
4:10:11,-0.88,0.4,0.13,30.66,21.91,-23.45
4:10:11,-0.89,0.39,0.12,27.23,17.15,-24.64
4:10:11,-0.87,0.37,0.1,23.03,12.6,-23.52
4:10:11,-0.85,0.37,0.08,21.7,9.38,-23.94
4:10:11,-0.84,0.37,0.07,17.5,6.16,-25.55
4:10:11,-0.82,0.36,0.08,9.31,5.67,-24.15
4:10:11,-0.82,0.34,0.08,-0.63,7.91,-24.22
4:10:11,-0.84,0.3,0.06,-7.84,9.94,-25.83
4:10:11,-0.86,0.25,0.05,-11.62,12.67,-29.96
4:10:11,-0.88,0.19,0.05,-17.85,16.38,-28.98
4:10:11,-0.89,0.18,0.02,-25.06,20.09,-29.47
4:10:11,-0.9,0.16,0.01,-25.55,22.54,-33.74
4:10:11,-0.91,0.14,0.01,-24.5,24.36,-35.35
4:10:11,-0.92,0.13,0.01,-23.87,22.75,-37.59
4:10:11,-0.9,0.14,0.02,-23.03,19.39,-41.51
4:10:11,-0.86,0.16,0.04,-21,15.47,-42.63
4:10:11,-0.84,0.19,0.07,-24.85,14.63,-41.23
4:10:11,-0.82,0.19,0.11,-27.79,20.93,-40.11
4:10:11,-0.83,0.2,0.11,-32.41,30.8,-37.87
4:10:11,-0.84,0.19,0.1,-32.69,39.06,-36.26
4:10:11,-0.85,0.18,0.11,-27.93,41.65,-35.56
4:10:11,-0.84,0.17,0.12,-15.4,44.03,-34.3
4:10:11,-0.83,0.19,0.11,-7.63,44.94,-31.36
4:10:11,-0.82,0.24,0.09,-4.97,44.1,-29.82
4:10:11,-0.79,0.27,0.06,-7.63,45.92,-27.09
4:10:11,-0.76,0.26,0.05,-9.87,53.06,-24.78
4:10:11,-0.77,0.26,0.01,-15.96,58.52,-21.07
4:10:11,-0.83,0.28,-0.02,-11.48,64.89,-22.68
4:10:11,-0.83,0.22,-0.03,-2.73,68.04,-19.67
4:10:11,-0.83,0.21,-0.02,8.96,69.16,-15.75
4:10:11,-0.82,0.2,0.02,20.16,68.81,-15.47
4:10:11,-0.83,0.21,0.05,28.42,65.8,-14.77
4:10:11,-0.82,0.16,0.07,36.05,56.84,-10.29
4:10:11,-0.79,0.17,0.12,33.18,50.19,-4.69
4:10:11,-0.82,0.22,0.13,19.88,45.71,-6.3
4:10:11,-0.89,0.24,0.13,3.15,40.67,-12.39
4:10:11,-0.93,0.23,0.14,-14.49,37.1,-18.34
4:10:11,-0.95,0.19,0.16,-27.37,35.07,-22.05
4:10:11,-0.98,0.18,0.16,-33.39,29.89,-27.79
4:10:11,-0.98,0.17,0.14,-37.59,30.59,-29.61
4:10:11,-1.08,0.22,0.08,-44.24,37.66,-27.86
4:10:11,-1.24,0.27,-0.01,-53.48,45.15,-25.48
4:10:11,-1.47,0.3,-0.13,-61.67,52.5,-18.62
4:10:11,-1.71,0.24,-0.17,-34.02,61.32,-1.68
4:10:11,-1.8,0.29,-0.24,27.86,62.3,11.13
4:10:11,-1.62,0.41,-0.37,80.57,30.38,25.13
4:10:11,-1.34,0.41,-0.28,119.35,-21.7,39.83
4:10:11,-1.07,0.41,-0.03,141.4,-45.15,48.3
4:10:11,-0.77,0.36,0.15,133.28,-26.39,59.64
4:10:11,-0.86,0.3,0.16,97.79,-3.78,71.26
4:10:11,-1.07,0.22,-0.02,51.17,8.89,80.29
4:10:11,-1.42,0.16,-0.12,-14.07,24.36,88.9
4:10:11,-1.82,0.17,-0.19,-68.11,42.84,89.74
4:10:11,-2.24,0.06,-0.34,-78.47,29.96,100.03
4:10:11,-2.35,0.09,-0.45,32.76,-32.9,113.54
4:10:11,-1.57,0.52,-0.25,93.24,-43.96,48.44
4:10:11,-1.01,0.41,-0.18,58.03,-35.14,10.08
4:10:11,-0.7,0.23,-0.2,3.78,-24.36,-6.37
4:10:11,-0.57,0.01,-0.26,-25.34,-24.5,-3.5
4:10:11,-0.5,-0.09,-0.29,-31.43,-30.94,4.83
4:10:11,-0.52,-0.16,-0.38,-15.89,-44.73,14.21
4:10:11,-0.66,-0.15,-0.48,3.92,-59.78,21.77
4:10:11,-0.77,-0.07,-0.53,14.42,-59.29,21.56
4:10:11,-0.95,0.04,-0.59,10.92,-49.42,14.77
4:10:11,-1.11,0.13,-0.61,-22.47,-33.04,9.38
4:10:11,-1.19,0.23,-0.55,-50.82,-0.77,1.96
4:10:11,-1.19,0.32,-0.46,-79.94,37.59,-6.72
4:10:11,-1.08,0.38,-0.38,-100.87,69.23,-12.88
4:10:11,-0.94,0.37,-0.31,-111.02,80.29,-11.48
4:10:11,-0.88,0.35,-0.25,-103.6,86.66,-6.51
4:10:11,-0.88,0.32,-0.23,-54.67,90.72,-0.49
4:10:11,-0.94,0.32,-0.23,-24.36,85.89,5.11
4:10:11,-0.98,0.33,-0.23,10.43,72.73,9.03
4:10:11,-0.98,0.34,-0.2,32.13,53.97,6.79
4:10:11,-0.93,0.3,-0.16,42.14,36.19,3.43
4:10:11,-0.88,0.25,-0.14,46.55,23.87,-0.91
4:10:11,-0.87,0.18,-0.14,47.32,15.96,-5.6
4:10:11,-0.9,0.12,-0.16,42.42,10.92,-4.97
4:10:11,-0.95,0.1,-0.18,29.19,7.7,-2.73
4:10:11,-1.02,0.11,-0.18,8.26,7.7,-3.22
4:10:11,-1.08,0.12,-0.17,-14.28,17.71,-7.56
4:10:11,-1.09,0.11,-0.18,-31.78,30.31,-10.85
4:10:11,-1.02,0.11,-0.2,-41.86,38.85,-13.09
4:10:11,-0.96,0.15,-0.25,-39.27,30.17,-13.16
4:10:11,-0.92,0.18,-0.24,-21.14,9.94,-10.64
4:10:11,-0.9,0.25,-0.19,-3.85,-5.46,-5.67
4:10:11,-0.91,0.33,-0.13,-2.17,-6.16,-1.89
4:10:11,-0.93,0.37,-0.14,-19.25,4.41,-1.82
4:10:11,-0.95,0.32,-0.22,-33.32,9.1,-2.31
4:10:11,-0.93,0.27,-0.28,-29.82,5.39,-1.89
4:10:11,-0.91,0.26,-0.29,-20.86,2.66,-1.75
4:10:11,-0.91,0.26,-0.29,-13.23,4.9,-1.89
4:10:11,-0.93,0.26,-0.28,-5.74,7.7,-3.85
4:10:11,-0.93,0.26,-0.26,0.21,7.07,-4.48
4:10:11,-0.94,0.26,-0.23,4.55,5.46,-4.69
4:10:11,-0.95,0.27,-0.21,5.95,3.57,-4.76
4:10:11,-0.93,0.28,-0.2,4.9,2.38,-5.67
4:10:11,-0.92,0.28,-0.19,3.64,2.8,-7.42
4:10:11,-0.91,0.28,-0.2,2.03,2.03,-8.05
4:10:11,-0.9,0.27,-0.21,0.42,0.28,-7.98
4:10:11,-0.9,0.27,-0.22,0.56,-2.73,-8.12
4:10:11,-0.92,0.28,-0.22,2.17,-6.16,-7.49
4:10:11,-0.92,0.3,-0.22,3.71,-7.56,-7.21
4:10:11,-0.93,0.31,-0.21,3.08,-5.95,-5.32
4:10:11,-0.93,0.32,-0.21,1.19,-3.71,-2.87
4:10:11,-0.94,0.32,-0.22,-0.49,-3.36,-1.47
4:10:11,-0.94,0.3,-0.22,0.49,-3.64,0.42
4:10:11,-0.94,0.28,-0.21,3.92,-5.04,3.08
4:10:11,-0.93,0.27,-0.2,4.2,-5.11,4.97
4:10:11,-0.95,0.25,-0.18,2.03,-4.34,5.11
4:10:11,-0.96,0.23,-0.18,-1.05,-4.06,4.2
4:10:11,-0.95,0.21,-0.16,-2.73,-5.04,2.59
4:10:11,-0.92,0.21,-0.14,-3.71,-7.21,0.35
4:10:11,-0.89,0.21,-0.12,-0.28,-14.28,-0.91
4:10:11,-0.87,0.24,-0.09,9.38,-24.01,-0.63
4:10:11,-0.85,0.28,-0.06,11.9,-29.26,2.59
4:10:11,-0.85,0.34,-0.06,-1.33,-24.71,2.17
4:10:11,-0.9,0.32,-0.11,-18.27,-22.26,-1.96
4:10:11,-0.91,0.27,-0.14,-22.61,-22.54,-3.36
4:10:11,-0.88,0.25,-0.16,-18.06,-25.69,-5.53
4:10:11,-0.84,0.22,-0.15,-11.27,-27.51,-6.93
4:10:11,-0.8,0.19,-0.14,-5.11,-26.53,-5.81
4:10:11,-0.79,0.18,-0.16,-1.33,-28.28,-4.06
4:10:11,-0.82,0.17,-0.2,-0.35,-33.88,-3.71
4:10:11,-0.88,0.17,-0.2,-3.08,-39.83,-4.97
4:10:11,-0.91,0.16,-0.18,-6.3,-40.81,-7.42
4:10:11,-0.92,0.13,-0.17,-6.86,-37.87,-10.78
4:10:11,-0.88,0.12,-0.16,-5.95,-32.97,-14.49
4:10:11,-0.82,0.12,-0.16,-3.22,-30.73,-14.98
4:10:11,-0.79,0.16,-0.16,-0.7,-34.58,-14.49
4:10:11,-0.78,0.2,-0.16,-1.05,-39.69,-13.23
4:10:11,-0.78,0.24,-0.15,-1.33,-41.72,-12.11
4:10:11,-0.76,0.28,-0.13,-3.36,-39.97,-10.71
4:10:11,-0.73,0.31,-0.13,-3.71,-34.51,-7
4:10:11,-0.71,0.35,-0.15,-5.04,-29.82,-2.38
4:10:11,-0.73,0.38,-0.17,-8.61,-29.26,1.26
4:10:11,-0.74,0.4,-0.18,-12.81,-31.22,2.94
4:10:11,-0.74,0.43,-0.17,-14.91,-31.64,3.85
4:10:11,-0.72,0.46,-0.16,-16.73,-30.66,4.69
4:10:11,-0.71,0.43,-0.16,-9.52,-33.32,11.83
4:10:11,-0.75,0.41,-0.18,23.52,-50.12,23.45
4:10:11,-0.81,0.4,-0.13,70.77,-73.29,39.62
4:10:11,-0.91,0.45,-0.06,101.01,-84.77,57.54
4:10:11,-1.04,0.58,0.01,101.36,-81.27,64.75
4:10:11,-1.2,0.63,0.05,95.27,-64.68,68.32
4:10:11,-1.43,0.68,0.09,92.05,-49.14,68.74
4:10:11,-1.74,0.7,0.19,91,-61.32,57.89
4:10:11,-1.95,0.8,0.4,43.12,-98.84,37.31
4:10:11,-1.71,0.6,0.6,-49.35,-84.28,33.74
4:10:11,-1.54,0.54,0.21,-126.28,-62.44,43.33
4:10:11,-1.53,0.39,-0.05,-150.99,-66.29,50.47
4:10:11,-1.5,0.25,-0.14,-128.59,-72.52,49.7
4:10:11,-1.41,0.12,-0.18,-95.76,-69.44,41.16
4:10:11,-1.31,-0.03,-0.21,-55.51,-59.64,31.92
4:10:11,-1.28,-0.15,-0.24,-8.61,-55.16,26.11
4:10:11,-1.24,-0.15,-0.15,15.96,-55.37,18.06
4:10:11,-1.15,-0.22,0.03,14.56,-54.53,14.28
4:10:11,-0.96,-0.24,0.2,1.12,-48.93,28.21
4:10:11,-0.82,-0.03,0.19,0.91,-34.86,28.28
4:10:11,-0.89,0.08,0.13,4.69,-23.24,22.68
4:10:11,-0.93,0.15,0.12,10.01,-20.58,22.05
4:10:11,-0.96,0.22,0.16,18.27,-21.56,20.58
4:10:11,-1,0.31,0.21,23.03,-22.12,18.41
4:10:11,-0.99,0.39,0.23,21.28,-20.3,15.26
4:10:11,-0.99,0.44,0.25,12.53,-16.24,12.81
4:10:11,-0.98,0.44,0.23,3.01,-11.13,9.24
4:10:11,-0.97,0.38,0.19,-6.86,-8.75,9.94
4:10:11,-0.96,0.32,0.17,-14.84,-8.26,11.48
4:10:11,-0.96,0.26,0.18,-18.55,-9.1,13.02
4:10:11,-0.96,0.21,0.19,-22.12,-7.84,13.09
4:10:11,-0.97,0.12,0.18,-20.3,-5.88,13.79
4:10:11,-0.99,0.07,0.17,-8.33,-5.18,16.73
4:10:11,-0.97,0.08,0.16,-1.12,-5.88,19.18
4:10:11,-0.96,0.11,0.15,5.04,-6.79,21.35
4:10:11,-0.94,0.17,0.16,6.58,-7.63,20.09
4:10:11,-0.92,0.19,0.18,8.54,-3.78,17.64
4:10:11,-0.92,0.2,0.18,13.16,0.49,17.78
4:10:11,-0.92,0.24,0.17,17.22,1.82,19.18
4:10:11,-0.92,0.3,0.17,24.08,3.08,20.58
4:10:11,-0.9,0.3,0.18,25.06,3.78,20.16
4:10:11,-0.86,0.29,0.2,25.69,3.92,19.81
4:10:11,-0.84,0.27,0.2,25.13,4.13,18.55
4:10:11,-0.82,0.26,0.2,23.24,5.81,16.87
4:10:11,-0.82,0.26,0.2,17.15,7.49,14.35
4:10:11,-0.83,0.29,0.18,12.67,9.03,12.18
4:10:11,-0.83,0.32,0.18,9.8,9.45,11.41
4:10:11,-0.83,0.36,0.19,7.63,9.31,9.03
4:10:11,-0.85,0.33,0.19,8.19,9.31,6.86
4:10:11,-0.85,0.31,0.19,10.29,10.08,4.97
4:10:11,-0.86,0.28,0.19,11.62,10.92,2.1
4:10:11,-0.86,0.26,0.19,13.23,11.55,-0.21
4:10:11,-0.87,0.26,0.18,14.7,12.25,-2.52
4:10:11,-0.88,0.27,0.17,16.73,12.11,-4.34
4:10:11,-0.87,0.27,0.17,17.92,12.46,-6.86
4:10:11,-0.87,0.27,0.17,17.99,13.09,-8.61
4:10:11,-0.88,0.28,0.16,17.22,13.09,-11.48
4:10:11,-0.87,0.28,0.14,17.01,13.72,-13.44
4:10:11,-0.87,0.29,0.12,19.32,14.14,-15.47
4:10:11,-0.86,0.31,0.1,21.35,15.19,-17.08
4:10:11,-0.86,0.33,0.1,21.84,16.17,-18.62
4:10:11,-0.87,0.35,0.09,20.79,17.57,-19.81
4:10:11,-0.89,0.35,0.08,19.53,18.62,-21.49
4:10:11,-0.9,0.35,0.07,18.9,18.69,-22.05
4:10:11,-0.92,0.36,0.07,18.69,17.78,-22.4
4:10:11,-0.91,0.37,0.08,18.48,15.68,-21.56
4:10:11,-0.9,0.4,0.08,17.99,13.51,-20.37
4:10:11,-0.87,0.43,0.09,18.34,13.93,-19.67
4:10:11,-0.85,0.45,0.08,19.81,15.05,-19.04
4:10:11,-0.83,0.45,0.07,22.26,16.03,-17.92
4:10:11,-0.84,0.44,0.07,23.45,17.43,-17.85
4:10:11,-0.85,0.42,0.06,22.26,18.06,-17.29
4:10:11,-0.86,0.4,0.07,19.11,19.32,-18.27
4:10:11,-0.85,0.38,0.07,13.79,21.77,-19.18
4:10:11,-0.85,0.37,0.07,5.46,25.48,-19.74
4:10:11,-0.85,0.35,0.06,-1.68,28.56,-19.81
4:10:11,-0.85,0.33,0.06,-6.37,30.03,-19.53
4:10:11,-0.85,0.32,0.06,-10.71,31.92,-16.94
4:10:11,-0.84,0.31,0.06,-12.74,33.04,-16.1
4:10:11,-0.82,0.29,0.08,-13.44,34.23,-16.17
4:10:11,-0.82,0.28,0.07,-14.07,35.7,-16.8
4:10:11,-0.83,0.13,0.06,-13.09,37.59,-17.64
4:10:11,-0.85,0.23,0.05,-13.3,38.78,-18.41
4:10:11,-0.87,0.2,0.04,-11.41,36.68,-19.53
4:10:11,-0.88,0.21,0.06,-6.3,31.64,-19.67
4:10:11,-0.87,0.21,0.08,-1.19,28.42,-19.32
4:10:11,-0.86,0.23,0.08,2.24,27.65,-19.74
4:10:11,-0.84,0.24,0.09,1.4,29.89,-20.09
4:10:11,-0.84,0.25,0.1,-3.08,34.86,-20.72
4:10:11,-0.85,0.24,0.1,-6.02,36.33,-20.86
4:10:11,-0.86,0.25,0.07,-7.42,30.52,-21.42
4:10:11,-0.85,0.26,0.03,-7.7,22.61,-22.47
4:10:11,-0.83,0.26,0.03,-7.56,17.36,-22.68
4:10:11,-0.8,0.28,0.05,-9.94,20.79,-21.56
4:10:11,-0.79,0.27,0.05,-13.72,29.12,-21.77
4:10:11,-0.81,0.27,0.05,-16.52,36.89,-20.51
4:10:11,-0.83,0.26,0.07,-18.27,43.4,-20.93
4:10:11,-0.86,0.24,0.08,-16.45,49.91,-21
4:10:11,-0.88,0.23,0.08,-12.53,50.61,-21.35
4:10:11,-0.9,0.24,0.08,-5.67,46.41,-21.63
4:10:11,-0.9,0.24,0.08,5.18,39.55,-20.79
4:10:11,-0.91,0.27,0.09,14.84,36.26,-19.11
4:10:11,-0.91,0.31,0.09,21.56,38.64,-18.13
4:10:11,-0.93,0.33,0.09,19.95,43.47,-14.7
4:10:11,-0.98,0.33,0.09,17.85,48.44,-11.06
4:10:11,-1.01,0.3,0.11,24.08,52.92,-10.43
4:10:11,-1.04,0.26,0.12,36.47,50.26,-9.59
4:10:11,-1.05,0.28,0.11,50.61,37.1,-12.18
4:10:11,-1.06,0.34,0.12,52.15,0.56,-18.27
4:10:11,-0.99,0.43,0.07,40.81,1.68,-23.59
4:10:11,-0.92,0.46,0.03,15.54,6.3,-22.54
4:10:11,-0.99,0.43,-0.08,-4.2,20.72,-20.02
4:10:11,-1.03,0.41,-0.19,-13.02,32.41,-18.06
4:10:11,-1.04,0.35,-0.25,-11.76,38.85,-15.96
4:10:11,-1.13,0.33,-0.23,-3.71,45.01,-8.68
4:10:11,-1.31,0.34,-0.13,21.14,58.94,1.54
4:10:11,-1.4,0.41,-0.25,73.57,57.05,7.84
4:10:11,-1.21,0.55,-0.29,93.24,9.8,4.48
4:10:11,-0.89,0.47,-0.11,83.44,-11.2,6.02
4:10:11,-0.69,0.39,0,65.38,3.78,14.56
4:10:11,-0.65,0.32,-0.01,45.64,14.98,28.56
4:10:11,-0.73,0.28,-0.1,19.6,10.5,42.91
4:10:11,-0.9,0.3,-0.17,-8.4,7.84,48.02
4:10:11,-1.09,0.27,-0.21,-27.51,15.33,49.84
4:10:11,-1.26,0.27,-0.27,-39.13,27.72,51.45
4:10:11,-1.37,0.28,-0.32,-39.69,37.8,50.47
4:10:11,-1.42,0.3,-0.38,-24.64,41.09,42.21
4:10:11,-1.42,0.31,-0.39,-2.59,31.22,30.73
4:10:11,-1.45,0.32,-0.34,10.29,21.91,29.96
4:10:11,-1.52,0.31,-0.33,16.1,17.85,40.6
4:10:11,-1.53,0.35,-0.38,33.81,-2.66,48.93
4:10:11,-1.32,0.42,-0.31,54.11,-29.54,36.19
4:10:11,-1.07,0.36,-0.18,45.85,-31.92,22.12
4:10:11,-0.97,0.26,-0.15,19.32,-22.96,20.23
4:10:11,-0.94,0.2,-0.2,-7.91,-18.55,17.5
4:10:11,-0.92,0.16,-0.22,-31.15,-18.97,13.58
4:10:11,-0.91,0.14,-0.25,-52.29,-20.3,11.13
4:10:11,-0.9,0.14,-0.28,-68.74,-18.69,8.54
4:10:11,-0.92,0.13,-0.34,-74.76,-14.14,6.23
4:10:11,-0.96,0.14,-0.37,-67.76,-6.09,3.5
4:10:11,-1.03,0.15,-0.4,-52.71,3.99,1.12
4:10:11,-1.12,0.17,-0.44,-32.76,11.13,-0.14
4:10:11,-1.14,0.18,-0.44,-8.19,13.86,-4.76
4:10:11,-1.08,0.2,-0.38,9.94,15.89,-10.99
4:10:11,-1,0.23,-0.31,12.53,18.13,-12.46
4:10:11,-0.95,0.23,-0.26,8.54,20.79,-10.01
4:10:11,-0.96,0.26,-0.24,6.79,23.38,-8.89
4:10:11,-0.97,0.29,-0.23,7.49,24.5,-9.45
4:10:11,-0.95,0.3,-0.23,8.05,24.01,-9.24
4:10:11,-0.92,0.3,-0.23,11.13,22.26,-8.68
4:10:11,-0.9,0.29,-0.23,13.72,17.85,-6.93
4:10:11,-0.9,0.28,-0.23,15.33,9.73,-3.92
4:10:11,-0.91,0.29,-0.22,14.35,3.36,-3.36
4:10:11,-0.89,0.29,-0.2,13.37,4.55,-5.25
4:10:11,-0.89,0.3,-0.22,7.56,5.88,-8.75
4:10:11,-0.87,0.29,-0.23,0.21,4.76,-7.77
4:10:11,-0.86,0.3,-0.23,-4.2,5.74,-4.34
4:10:11,-0.88,0.32,-0.24,-2.8,6.72,-3.71
4:10:11,-0.88,0.35,-0.25,0.49,7.77,-4.2
4:10:11,-0.89,0.38,-0.24,1.68,7.77,-2.66
4:10:11,-0.89,0.38,-0.22,4.06,7.14,-1.75
4:10:11,-0.9,0.36,-0.2,11.97,7.7,-0.63
4:10:11,-0.9,0.33,-0.19,21.14,5.88,2.45
4:10:11,-0.91,0.28,-0.17,28.28,2.94,5.95
4:10:11,-0.92,0.25,-0.16,31.01,1.89,7.63
4:10:11,-0.94,0.21,-0.15,31.78,1.82,8.4
4:10:11,-0.96,0.18,-0.16,31.15,2.59,7.98
4:10:11,-0.97,0.17,-0.16,26.39,1.89,8.05
4:10:11,-0.98,0.16,-0.17,22.4,-2.38,7.42
4:10:11,-0.97,0.14,-0.18,21.56,-9.24,3.85
4:10:11,-0.93,0.14,-0.18,24.15,-16.38,1.96
4:10:11,-0.89,0.16,-0.17,26.67,-23.24,1.19
4:10:11,-0.88,0.22,-0.18,23.24,-30.73,0
4:10:11,-0.88,0.27,-0.17,13.65,-34.3,-2.24
4:10:11,-0.89,0.31,-0.17,-16.31,-32.62,-5.18
4:10:11,-0.91,0.35,-0.18,-14.63,-29.05,-7
4:10:11,-0.93,0.37,-0.2,-25.55,-25.34,-8.54
4:10:11,-0.94,0.38,-0.21,-32.9,-22.12,-10.43
4:10:11,-0.92,0.38,-0.22,-35.98,-19.6,-13.65
4:10:11,-0.88,0.37,-0.21,-33.74,-17.85,-14.91
4:10:11,-0.83,0.37,-0.19,-31.78,-16.38,-15.47
4:10:11,-0.77,0.35,-0.16,-28.98,-14.98,-16.52
4:10:11,-0.72,0.36,-0.15,-28.7,-13.23,-16.87
4:10:11,-0.7,0.36,-0.14,-29.05,-12.25,-16.73
4:10:11,-0.7,0.39,-0.14,-32.2,-10.78,-15.61
4:10:11,-0.73,0.41,-0.15,-36.47,-11.55,-12.53
4:10:11,-0.75,0.41,-0.16,-38.29,-13.37,-6.79
4:10:11,-0.73,0.4,-0.16,-28.84,-14.63,-2.03
4:10:11,-0.71,0.38,-0.16,-14.35,-16.24,3.92
4:10:11,-0.67,0.38,-0.15,0.42,-19.39,8.96
4:10:11,-0.63,0.37,-0.15,16.24,-26.32,12.95
4:10:11,-0.6,0.35,-0.14,37.1,-38.08,16.73
4:10:11,-0.62,0.31,-0.15,81.97,-67.55,23.73
4:10:11,-0.62,0.49,-0.06,123.2,-95.48,36.47
4:10:11,-0.61,0.48,0.02,119.07,-101.92,37.38
4:10:11,-0.59,0.53,0.05,82.46,-90.3,33.6
4:10:11,-0.75,0.49,0.03,45.43,-76.02,29.89
4:10:11,-0.66,0.46,0.01,29.12,-78.75,24.92
4:10:11,-0.66,0.44,0.01,32.13,-92.19,19.39
4:10:11,-0.63,0.4,0.08,42.7,-98.21,25.9
4:10:11,-0.68,0.47,0.15,37.66,-82.88,37.94
4:10:11,-0.82,0.6,0.1,26.32,-64.68,50.82
4:10:11,-0.97,0.75,-0.03,10.5,-61.18,63.14
4:10:11,-1.22,0.82,-0.05,10.43,-66.64,75.67
4:10:11,-1.57,0.75,0.09,44.87,-78.19,92.75
4:10:11,-1.76,1.08,0.44,34.65,-87.22,77.28
4:10:11,-1.67,0.94,0.36,-70.35,-70.21,62.44
4:10:11,-1.4,0.64,-0.02,-151.34,-68.32,68.18
4:10:11,-1.32,0.44,-0.19,-164.43,-70.7,77.63
4:10:11,-1.41,0.3,-0.19,-152.25,-64.26,87.22
4:10:11,-1.44,0.12,-0.24,-110.95,-51.17,82.81
4:10:11,-1.54,-0.04,-0.3,-32.97,-42.63,75.32
4:10:11,-1.65,-0.1,-0.31,17.85,-42.63,60.06
4:10:11,-1.65,-0.1,-0.1,26.46,-36.19,40.18
4:10:11,-1.32,-0.12,0.19,-8.54,-21.35,43.4
4:10:11,-1.05,0.09,0.06,-0.49,-21.77,50.26
4:10:11,-0.95,0.35,0.09,4.62,-12.74,38.08
4:10:11,-0.91,0.4,0.1,-3.22,-1.68,30.31
4:10:11,-0.93,0.41,0.1,-1.54,3.57,23.31
4:10:11,-0.95,0.43,0.14,-4.48,6.37,15.54
4:10:11,-0.97,0.45,0.16,-10.5,7.49,10.99
4:10:11,-0.97,0.48,0.2,-18.34,8.05,6.93
4:10:11,-0.96,0.47,0.22,-28,9.1,8.4
4:10:11,-0.95,0.46,0.23,-29.47,13.37,9.24
4:10:11,-0.98,0.47,0.22,-28.77,15.05,7.63
4:10:11,-1,0.45,0.22,-30.17,13.72,7.21
4:10:11,-1.02,0.46,0.24,-32.34,13.23,7.35
4:10:11,-1,0.47,0.21,-39.06,12.74,6.09
4:10:11,-1.01,0.41,0.2,-37.1,10.92,5.39
4:10:11,-1.02,0.4,0.21,-39.06,8.47,2.24
4:10:11,-1.02,0.26,0.2,-40.67,5.46,3.78
4:10:11,-1,0.14,0.2,-31.29,3.5,5.95
4:10:11,-0.97,0.05,0.19,-17.57,2.59,7.49
4:10:11,-0.95,0.04,0.19,-2.59,2.24,10.01
4:10:11,-0.93,0.13,0.2,5.81,2.31,10.92
4:10:11,-0.91,0.22,0.19,10.92,3.01,8.26
4:10:11,-0.91,0.3,0.17,16.24,6.3,4.9
4:10:11,-0.9,0.48,0.16,22.12,9.73,3.78
4:10:11,-0.88,0.41,0.15,25.34,10.01,4.83
4:10:11,-0.87,0.45,0.16,26.81,7.28,5.25
4:10:11,-0.84,0.44,0.17,22.89,6.86,4.97
4:10:11,-0.82,0.47,0.18,16.31,7.91,3.78
4:10:11,-0.81,0.48,0.18,8.68,7.98,3.85
4:10:11,-0.79,0.48,0.18,2.94,7.98,2.94
4:10:11,-0.78,0.47,0.18,4.55,7.42,2.94
4:10:11,-0.79,0.48,0.18,5.04,7.42,2.94
4:10:11,-0.81,0.46,0.17,2.52,7.42,2.66
4:10:11,-0.82,0.41,0.14,1.96,7.77,3.22
4:10:11,-0.83,0.38,0.13,1.19,7.91,3.08
4:10:11,-0.84,0.36,0.13,0.77,8.12,3.5
4:10:11,-0.85,0.34,0.14,1.05,8.4,3.36
4:10:11,-0.85,0.34,0.14,2.87,9.1,3.22
4:10:11,-0.86,0.34,0.14,4.2,9.73,1.61
4:10:11,-0.87,0.34,0.14,6.72,10.5,-0.49
4:10:11,-0.85,0.34,0.14,10.85,10.99,-2.59
4:10:11,-0.84,0.34,0.13,15.05,11.9,-3.99
4:10:11,-0.85,0.34,0.12,17.99,12.46,-6.16
4:10:11,-0.83,0.32,0.11,21.7,12.67,-7.21
4:10:11,-0.82,0.32,0.11,24.43,13.37,-9.1
4:10:11,-0.81,0.32,0.11,26.6,13.02,-10.57
4:10:11,-0.79,0.32,0.11,27.02,11.06,-11.76
4:10:11,-0.78,0.33,0.12,24.08,9.8,-12.88
4:10:11,-0.78,0.34,0.11,19.88,9.1,-14.07
4:10:11,-0.78,0.37,0.1,17.08,9.52,-14.49
4:10:11,-0.78,0.4,0.09,17.29,11.9,-15.54
4:10:11,-0.81,0.43,0.09,18.69,14.98,-17.08
4:10:11,-0.85,0.45,0.08,19.6,17.92,-17.15
4:10:11,-0.89,0.47,0.05,19.67,18.06,-17.08
4:10:11,-0.91,0.49,0.04,20.3,16.24,-17.71
4:10:11,-0.91,0.51,0.04,21.49,14.14,-17.85
4:10:11,-0.91,0.52,0.03,22.75,12.95,-17.5
4:10:11,-0.92,0.53,0,25.83,11.62,-17.92
4:10:11,-0.91,0.54,0,30.45,10.71,-19.18
4:10:11,-0.88,0.54,0.02,33.04,9.8,-20.79
4:10:11,-0.85,0.54,0.04,31.57,9.8,-22.68
4:10:11,-0.83,0.53,0.04,24.08,11.97,-23.8
4:10:11,-0.83,0.51,0.03,14.28,14.21,-26.46
4:10:11,-0.84,0.48,0.01,5.95,16.87,-28.49
4:10:11,-0.85,0.45,0.01,-1.05,19.6,-31.08
4:10:11,-0.85,0.43,0.03,-7.49,21.56,-32.97
4:10:11,-0.85,0.41,0.05,-13.44,23.8,-35.49
4:10:11,-0.84,0.4,0.07,-17.15,25.48,-37.17
4:10:11,-0.83,0.4,0.08,-21.42,27.09,-38.85
4:10:11,-0.83,0.39,0.09,-23.87,27.02,-38.15
4:10:11,-0.82,0.4,0.08,-27.86,26.67,-38.85
4:10:11,-0.82,0.4,0.07,-31.22,26.25,-37.31
4:10:11,-0.81,0.38,0.06,-34.58,26.95,-33.32
4:10:11,-0.8,0.39,0.05,-39.41,29.4,-30.73
4:10:11,-0.79,0.37,0.04,-41.79,31.29,-31.85
4:10:11,-0.8,0.33,0.05,-41.44,31.29,-31.22
4:10:11,-0.8,0.31,0.08,-38.5,31.71,-28.84
4:10:11,-0.8,0.3,0.1,-34.86,33.53,-27.02
4:10:11,-0.8,0.29,0.11,-33.04,35.07,-25.48
4:10:11,-0.82,0.3,0.11,-33.67,36.12,-26.11
4:10:11,-0.85,0.28,0.11,-31.57,36.54,-25.48
4:10:11,-0.89,0.27,0.09,-25.83,37.1,-25.55
4:10:11,-0.88,0.29,0.09,-26.46,40.88,-25.27
4:10:11,-0.88,0.32,0.05,-29.68,45.22,-26.88
4:10:11,-0.85,0.33,0.01,-29.68,48.09,-24.64
4:10:11,-0.85,0.34,-0.02,-26.67,46.9,-24.71
4:10:11,-0.84,0.36,-0.04,-18.27,47.04,-24.36
4:10:11,-0.84,0.39,-0.07,-6.3,47.39,-23.8
4:10:11,-0.84,0.38,-0.08,7.14,45.57,-22.61
4:10:11,-0.82,0.37,-0.07,18.34,45.22,-18.9
4:10:11,-0.8,0.32,-0.02,32.62,48.65,-14.14
4:10:11,-0.81,0.31,0.04,35.21,52.43,-12.04
4:10:11,-0.82,0.3,0.1,34.02,54.74,-13.37
4:10:11,-0.86,0.28,0.13,25.83,48.58,-16.94
4:10:11,-0.87,0.27,0.15,11.2,37.73,-19.74
4:10:11,-0.85,0.27,0.14,-0.84,27.79,-21.28
4:10:11,-0.82,0.29,0.11,-7.56,23.94,-23.45
4:10:11,-0.81,0.32,0.06,-9.66,24.43,-22.75
4:10:11,-0.81,0.31,0.01,-7.07,25.55,-20.51
4:10:11,-0.81,0.29,-0.03,3.43,28.14,-16.87
4:10:11,-0.85,0.28,0,8.75,38.01,-14
4:10:11,-0.99,0.3,-0.01,11.13,52.71,-13.16
4:10:11,-1.17,0.32,-0.07,6.65,63.21,-18.2
4:10:11,-1.37,0.3,-0.09,12.46,73.29,-17.22
4:10:11,-1.62,0.35,-0.1,37.17,73.01,-7.91
4:10:11,-1.63,0.49,-0.24,64.96,50.82,8.54
4:10:11,-1.33,0.58,-0.37,77.28,12.74,15.26
4:10:11,-1.17,0.47,-0.26,83.93,-12.39,23.94
4:10:11,-1.16,0.47,-0.01,88.83,-14.56,31.5
4:10:11,-1.19,0.4,0.16,69.16,-14.21,29.12
4:10:11,-1.11,0.16,0,38.64,-15.82,45.85
4:10:11,-1.03,0.17,-0.21,42.28,-16.38,58.66
4:10:11,-1.01,0.22,-0.3,37.17,-22.82,53.55
4:10:11,-1.11,0.2,-0.35,22.89,-30.94,46.83
4:10:11,-1.29,0.21,-0.39,17.08,-31.15,37.38
4:10:11,-1.39,0.21,-0.43,24.5,-23.59,24.08
4:10:11,-1.35,0.17,-0.48,45.64,-15.26,15.89
4:10:11,-1.28,0.23,-0.52,52.64,-14.21,10.36
4:10:11,-1.2,0.3,-0.45,30.24,-17.71,6.44
4:10:11,-1.09,0.32,-0.35,1.47,-12.6,4.41
4:10:11,-1,0.3,-0.28,-18.06,0.56,7.07
4:10:11,-0.96,0.29,-0.27,-26.32,12.39,6.16
4:10:11,-0.96,0.26,-0.31,-17.5,19.6,3.15
4:10:11,-1.01,0.25,-0.35,-2.73,17.57,2.03
4:10:11,-1.05,0.24,-0.36,5.53,11.62,2.73
4:10:11,-1.02,0.21,-0.35,9.66,9.03,2.45
4:10:11,-0.95,0.19,-0.35,13.3,10.43,1.26
4:10:11,-0.87,0.18,-0.35,19.18,14.49,-1.12
4:10:11,-0.83,0.18,-0.37,22.33,16.45,-2.17
4:10:11,-0.8,0.19,-0.38,18.27,16.59,-1.47
4:10:11,-0.82,0.22,-0.39,12.74,15.89,0
4:10:11,-0.88,0.28,-0.37,5.74,19.74,0.07
4:10:11,-0.97,0.35,-0.33,-2.52,29.05,-0.7
4:10:11,-1.02,0.4,-0.29,-6.02,39.27,-1.96
4:10:11,-1.02,0.41,-0.25,-4.9,46.76,-5.04
4:10:11,-0.95,0.39,-0.22,-2.66,47.18,-4.69
4:10:11,-0.87,0.38,-0.18,-1.54,42.14,-4.27
4:10:11,-0.85,0.4,-0.15,-0.21,36.19,-9.1
4:10:11,-0.87,0.37,-0.13,-1.68,29.19,-10.36
4:10:11,-0.91,0.35,-0.11,-13.02,25.69,-7.63
4:10:11,-0.95,0.31,-0.11,-21.7,25.55,-7.84
4:10:11,-0.97,0.25,-0.15,-22.82,20.51,-7.91
4:10:11,-0.92,0.22,-0.19,-15.47,9.52,-5.6
4:10:11,-0.87,0.23,-0.19,-5.04,2.1,-1.96
4:10:11,-0.9,0.26,-0.2,2.31,-1.96,1.82
4:10:11,-0.93,0.3,-0.19,4.41,-3.29,2.94
4:10:11,-0.94,0.29,-0.2,6.51,-2.52,4.13
4:10:11,-0.95,0.28,-0.22,10.92,-4.83,5.81
4:10:11,-0.95,0.28,-0.22,15.75,-9.66,5.67
4:10:11,-0.93,0.29,-0.21,16.45,-11.62,4.76
4:10:11,-0.9,0.29,-0.2,13.86,-10.92,4.9
4:10:11,-0.9,0.3,-0.21,9.66,-10.29,5.39
4:10:11,-0.9,0.31,-0.22,4.48,-9.87,5.53
4:10:11,-0.92,0.33,-0.23,-0.35,-11.06,6.37
4:10:11,-0.93,0.35,-0.24,-3.15,-10.15,6.93
4:10:11,-0.92,0.36,-0.23,-4.41,-8.05,6.09
4:10:11,-0.9,0.35,-0.23,-4.69,-7.07,6.3
4:10:11,-0.89,0.35,-0.24,-5.18,-7.77,6.58
4:10:11,-0.89,0.35,-0.23,-5.53,-9.17,6.58
4:10:11,-0.88,0.35,-0.22,-4.55,-10.36,6.86
4:10:11,-0.87,0.34,-0.21,-2.24,-10.22,7.28
4:10:11,-0.87,0.33,-0.21,0.63,-10.92,7.14
4:10:11,-0.87,0.33,-0.21,3.08,-13.02,6.65
4:10:11,-0.88,0.32,-0.21,5.11,-14.63,7.07
4:10:11,-0.89,0.3,-0.22,5.74,-16.45,6.86
4:10:11,-0.9,0.28,-0.22,6.37,-17.92,7.84
4:10:11,-0.9,0.28,-0.22,6.44,-19.88,8.4
4:10:11,-0.9,0.29,-0.21,4.97,-21.35,7.56
4:10:11,-0.88,0.29,-0.21,1.96,-21.07,5.81
4:10:11,-0.87,0.29,-0.21,-1.05,-20.02,5.11
4:10:11,-0.86,0.28,-0.22,-3.85,-19.11,5.04
4:10:11,-0.86,0.27,-0.22,-3.99,-18.13,4.69
4:10:11,-0.87,0.26,-0.23,-2.45,-18.2,5.18
4:10:11,-0.89,0.26,-0.22,-0.07,-17.64,4.76
4:10:11,-0.9,0.28,-0.21,1.26,-17.22,3.57
4:10:11,-0.91,0.3,-0.2,0.63,-16.31,2.31
4:10:11,-0.91,0.31,-0.19,-0.63,-15.75,1.68
4:10:11,-0.93,0.32,-0.19,-3.08,-15.96,1.68
4:10:11,-0.94,0.34,-0.18,-5.6,-16.03,0.28
4:10:11,-0.93,0.33,-0.17,-4.69,-16.1,-1.26
4:10:11,-0.9,0.32,-0.16,-1.96,-16.03,-2.31
4:10:11,-0.87,0.32,-0.15,-0.91,-16.66,-3.43
4:10:11,-0.85,0.32,-0.14,-0.7,-18.83,-4.48
4:10:11,-0.83,0.32,-0.14,-1.82,-20.93,-6.65
4:10:11,-0.8,0.32,-0.14,-3.36,-22.26,-7.77
4:10:11,-0.78,0.32,-0.14,-4.62,-21.28,-9.1
4:10:11,-0.76,0.32,-0.15,-6.44,-18.69,-9.24
4:10:11,-0.74,0.33,-0.16,-9.73,-17.15,-7.91
4:10:11,-0.73,0.35,-0.17,-17.43,-16.59,-6.58
4:10:11,-0.73,0.37,-0.18,-24.5,-18.41,-6.16
4:10:11,-0.73,0.39,-0.18,-30.1,-20.09,-7.35
4:10:11,-0.72,0.42,-0.18,-35.07,-18.9,-7.14
4:10:11,-0.73,0.44,-0.18,-40.46,-15.68,-7.14
4:10:11,-0.74,0.47,-0.18,-44.31,-13.65,-8.19
4:10:11,-0.72,0.47,-0.18,-45.08,-11.06,-7.28
4:10:11,-0.7,0.46,-0.17,-41.65,-8.19,-1.96
4:10:11,-0.68,0.45,-0.18,-33.81,-9.66,6.3
4:10:11,-0.69,0.46,-0.2,-18.13,-20.65,12.74
4:10:11,-0.71,0.46,-0.21,10.71,-42.7,17.99
4:10:11,-0.73,0.5,-0.17,44.31,-63.98,21.63
4:10:11,-0.72,0.53,-0.12,70.21,-78.61,25.48
4:10:11,-0.69,0.54,-0.06,74.62,-82.88,31.64
4:10:11,-0.68,0.57,0.12,68.67,-77.28,34.51
4:10:11,-0.72,0.6,0.05,66.85,-63.35,39.41
4:10:11,-0.82,0.68,0.03,56.21,-48.51,44.87
4:10:11,-0.94,0.74,0.02,45.29,-46.69,48.23
4:10:11,-1.1,0.78,0.09,36.89,-51.66,51.45
4:10:11,-1.32,0.83,0.29,19.04,-64.12,48.58
4:10:11,-1.41,0.84,0.41,-36.68,-68.74,45.22
4:10:11,-1.36,0.73,0.24,-93.87,-57.75,58.94
4:10:11,-1.39,0.66,-0.01,-114.59,-64.12,70.98
4:10:11,-1.41,0.65,-0.06,-117.6,-70.77,78.54
4:10:11,-1.4,0.56,-0.07,-112.14,-61.88,80.78
4:10:11,-1.41,0.44,-0.11,-98.84,-53.34,85.19
4:10:11,-1.4,0.35,-0.13,-81.69,-46.62,85.68
4:10:11,-1.43,0.3,-0.16,-68.11,-39.34,81.9
4:10:11,-1.56,0.24,-0.18,-52.92,-40.32,75.39
4:10:11,-1.68,0.22,-0.12,-38.78,-47.04,59.29
4:10:11,-1.63,0.05,0.04,-24.85,-39.48,46.69
4:10:11,-1.41,0.06,0.07,-27.72,-34.51,50.61
4:10:11,-1.15,0.22,0.04,-15.12,-34.3,48.58
4:10:11,-1.06,0.3,0.06,-10.01,-21.7,41.37
4:10:11,-1.03,0.31,0.06,-7.98,-14.28,38.85
4:10:11,-1,0.34,0.04,-6.86,-11.13,35.28
4:10:11,-0.95,0.37,0.06,-1.47,-10.64,31.01
4:10:11,-0.9,0.45,0.14,-8.82,-6.37,25.97
4:10:11,-0.88,0.47,0.17,-20.93,-3.01,20.65
4:10:11,-0.84,0.44,0.14,-24.99,4.2,18.55
4:10:11,-0.86,0.42,0.11,-26.04,11.55,15.33
4:10:11,-0.9,0.39,0.14,-26.81,10.78,12.18
4:10:11,-0.87,0.39,0.18,-28.98,6.93,11.2
4:10:11,-0.79,0.37,0.18,-33.25,7.42,11.83
4:10:11,-0.75,0.34,0.16,-34.23,10.5,12.18
4:10:11,-0.73,0.29,0.15,-34.79,13.02,12.46
4:10:11,-0.76,0.25,0.16,-33.25,13.09,9.31
4:10:11,-0.78,0.18,0.17,-30.66,14.28,6.58
4:10:11,-0.8,0.12,0.16,-19.32,16.1,4.83
4:10:11,-0.79,0.12,0.15,-10.36,17.08,4.62
4:10:11,-0.78,0.15,0.16,-3.57,18.27,2.8
4:10:11,-0.79,0.18,0.17,3.22,17.78,1.26
4:10:11,-0.81,0.23,0.17,7.84,17.43,-1.26
4:10:11,-0.85,0.29,0.15,9.1,17.43,-2.59
4:10:11,-0.86,0.29,0.11,12.88,17.15,-3.71
4:10:11,-0.86,0.32,0.09,16.31,16.87,-4.83
4:10:11,-0.84,0.33,0.08,21.07,15.33,-5.46
4:10:11,-0.82,0.34,0.08,26.46,12.39,-6.37
4:10:11,-0.79,0.35,0.1,31.15,11.83,-7.21
4:10:11,-0.77,0.37,0.12,35.21,11.62,-9.03
4:10:11,-0.76,0.4,0.14,35.56,13.16,-10.71
4:10:11,-0.76,0.43,0.14,32.41,16.1,-12.39
4:10:11,-0.78,0.47,0.13,27.65,18.76,-14.35
4:10:11,-0.8,0.51,0.09,21.91,20.37,-17.64
4:10:11,-0.83,0.55,0.07,16.73,20.44,-20.44
4:10:11,-0.85,0.57,0.07,13.16,20.16,-21.91
4:10:11,-0.86,0.57,0.08,10.92,18.76,-22.82
4:10:11,-0.87,0.57,0.09,8.61,17.99,-22.33
4:10:11,-0.86,0.55,0.1,6.58,16.87,-22.33
4:10:11,-0.86,0.5,0.11,5.95,16.38,-22.05
4:10:11,-0.86,0.46,0.1,5.39,16.38,-21.07
4:10:11,-0.86,0.43,0.09,4.27,17.57,-21.28
4:10:11,-0.87,0.39,0.07,3.64,18.62,-21.21
4:10:11,-0.86,0.37,0.04,1.75,20.09,-22.61
4:10:11,-0.84,0.34,0.03,2.38,20.65,-22.89
4:10:11,-0.81,0.33,0.02,5.74,21.14,-23.52
4:10:11,-0.79,0.32,0.03,9.03,23.45,-23.73
4:10:11,-0.77,0.33,0.05,11.48,27.09,-24.29
4:10:11,-0.77,0.34,0.06,12.6,31.01,-25.48
4:10:11,-0.78,0.35,0.05,13.51,33.39,-27.16
4:10:11,-0.77,0.35,0.06,14.14,34.65,-28.77
4:10:11,-0.77,0.38,0.08,12.32,36.12,-29.61
4:10:11,-0.75,0.4,0.09,8.4,37.1,-30.8
4:10:11,-0.75,0.41,0.08,7.14,36.82,-30.8
4:10:11,-0.76,0.43,0.06,5.74,35.21,-31.43
4:10:11,-0.76,0.43,0.07,0.49,32.13,-31.36
4:10:11,-0.75,0.43,0.07,-5.81,29.61,-31.15
4:10:11,-0.73,0.42,0.05,-14.84,28,-30.38
4:10:11,-0.71,0.4,0.03,-24.57,29.4,-29.61
4:10:11,-0.7,0.38,0.02,-31.5,31.85,-29.68
4:10:11,-0.71,0.35,0.03,-36.05,35.28,-29.05
4:10:11,-0.74,0.32,0.05,-40.04,36.68,-30.73
4:10:11,-0.77,0.31,0.05,-43.4,37.24,-31.71
4:10:11,-0.79,0.29,0.06,-42.7,36.26,-34.51
4:10:11,-0.81,0.28,0.07,-39.83,36.33,-35.56
4:10:11,-0.81,0.32,0.08,-36.33,40.88,-37.24
4:10:11,-0.81,0.36,0.07,-37.31,44.94,-39.06
4:10:11,-0.81,0.35,0.05,-43.61,49.77,-36.26
4:10:11,-0.84,0.38,0.03,-45.08,53.41,-35.42
4:10:11,-0.87,0.38,0.02,-38.08,62.09,-35.63
4:10:11,-0.9,0.42,-0.02,-27.16,67.9,-33.95
4:10:11,-0.93,0.4,-0.05,-8.82,67.48,-31.5
4:10:11,-0.95,0.37,-0.02,11.2,60.13,-24.01
4:10:11,-0.96,0.38,0.04,29.05,52.5,-16.87
4:10:11,-0.96,0.4,0.1,30.94,44.8,-11.97
4:10:11,-0.97,0.43,0.14,22.54,37.73,-14.84
4:10:11,-0.93,0.38,0.17,14.49,29.96,-18.9
4:10:11,-0.9,0.37,0.19,10.43,27.37,-22.54
4:10:11,-0.87,0.38,0.18,3.29,27.44,-22.75
4:10:11,-0.89,0.4,0.15,-7,29.68,-21.07
4:10:11,-1,0.43,0.15,-7.49,40.32,-21.77
4:10:11,-1.2,0.48,0.12,-6.44,56.49,-22.75
4:10:11,-1.46,0.57,0.01,-8.26,66.22,-25.97
4:10:11,-1.64,0.53,-0.11,6.65,59.08,-17.08
4:10:11,-1.35,0.51,-0.37,33.88,38.92,6.37
4:10:11,-0.97,0.45,-0.43,56.56,7.14,20.58
4:10:11,-0.81,0.35,-0.32,75.74,-15.12,27.79
4:10:11,-0.83,0.31,-0.22,86.66,-21,37.38
4:10:11,-0.95,0.33,-0.16,99.54,-16.52,44.73
4:10:11,-1.06,0.27,-0.17,91.49,-13.65,45.99
4:10:11,-0.96,0.14,-0.2,69.72,-12.04,47.67
4:10:11,-0.88,0.11,-0.19,53.34,-9.94,45.01
4:10:11,-1.18,0.21,-0.17,33.25,5.25,38.78
4:10:11,-1.76,0.45,-0.21,-5.53,27.3,31.15
4:10:11,-2.27,0.6,-0.11,-50.33,40.46,38.99
4:10:11,-2.74,0.39,-0.04,77.7,-44.52,114.24
4:10:11,-1.88,1.21,-0.05,159.95,-95.76,115.64
4:10:11,-0.95,1,-0.06,69.37,-58.94,38.64
4:10:11,-0.69,0.59,-0.17,-47.18,-21.35,11.2
4:10:11,-0.61,0.35,-0.31,-100.03,-17.64,3.29
4:10:11,-0.52,0.14,-0.36,-104.93,-30.45,4.62
4:10:11,-0.48,-0.02,-0.4,-75.74,-40.53,8.47
4:10:11,-0.53,-0.17,-0.61,-12.67,-54.46,16.52
4:10:11,-0.63,-0.14,-0.74,46.13,-67.13,26.95
4:10:11,-0.77,-0.03,-0.86,87.5,-71.26,26.81
4:10:11,-0.89,0.17,-0.82,93.38,-58.31,23.59
4:10:11,-1.03,0.34,-0.67,53.27,-26.95,16.24
4:10:11,-1.09,0.42,-0.5,-7.42,21.14,5.74
4:10:11,-1.09,0.46,-0.39,-50.68,82.11,-15.4
4:10:11,-1.06,0.42,-0.33,-66.43,114.45,-31.5
4:10:11,-0.98,0.37,-0.26,-63.84,135.38,-28.98
4:10:11,-0.97,0.37,-0.24,-38.29,143.43,-20.65
4:10:11,-0.96,0.41,-0.2,-14.98,138.25,-17.15
4:10:11,-0.92,0.37,-0.09,14.28,126.7,-13.58
4:10:11,-1.05,0.28,0.1,54.32,60.06,-12.81
4:10:11,-1.04,0.2,0.47,38.92,-44.1,-21.63
4:10:11,-0.85,0.26,0.21,7.14,-7.49,-11.27
4:10:11,-0.91,0.42,-0.14,-27.37,10.29,-16.94
4:10:11,-0.95,0.42,-0.29,-49,2.66,-26.25
4:10:11,-0.88,0.37,-0.3,-48.51,-1.82,-21.63
4:10:11,-0.87,0.39,-0.31,-34.09,0.98,-14.35
4:10:11,-0.86,0.44,-0.29,-12.39,6.44,-9.03
4:10:11,-0.85,0.48,-0.26,4.55,10.71,-4.34
4:10:11,-0.82,0.48,-0.24,20.16,11.9,-1.33
4:10:11,-0.81,0.46,-0.22,29.54,9.24,2.66
4:10:11,-0.82,0.43,-0.21,33.46,5.04,8.54
4:10:11,-0.85,0.4,-0.19,32.62,1.96,12.18
4:10:11,-0.88,0.39,-0.17,28.21,-0.35,13.02
4:10:11,-0.9,0.39,-0.16,21.98,-3.36,11.55
4:10:11,-0.9,0.41,-0.15,14.56,-7.07,8.05
4:10:11,-0.89,0.44,-0.13,5.81,-9.66,10.57
4:10:11,-0.86,0.47,-0.12,3.5,-10.36,11.9
4:10:11,-0.83,0.5,-0.12,4.76,-12.6,11.41
4:10:11,-0.82,0.52,-0.12,1.61,-13.79,12.18
4:10:11,-0.84,0.49,-0.11,-1.96,-12.11,14.42
4:10:11,-0.87,0.42,-0.14,-6.02,-10.57,17.08
4:10:11,-0.9,0.35,-0.17,-4.41,-13.44,13.3
4:10:11,-0.91,0.29,-0.18,-1.75,-18.76,11.06
4:10:11,-0.91,0.26,-0.18,-1.19,-23.45,9.66
4:10:11,-0.9,0.25,-0.18,-1.96,-28.35,7.91
4:10:11,-0.86,0.28,-0.15,-5.32,-28.84,4.69
4:10:11,-0.84,0.32,-0.13,-11.34,-27.09,3.57
4:10:11,-0.88,0.39,-0.16,-20.09,-27.58,2.38
4:10:11,-0.91,0.42,-0.19,-26.46,-29.68,3.71
4:10:11,-0.91,0.43,-0.19,-23.45,-30.52,5.95
4:10:11,-0.88,0.41,-0.19,-11.62,-30.17,5.32
4:10:11,-0.84,0.4,-0.18,-0.77,-32.48,5.25
4:10:11,-0.81,0.37,-0.17,6.44,-35.7,8.61
4:10:11,-0.81,0.39,-0.17,12.46,-36.96,12.25
4:10:11,-0.85,0.39,-0.2,17.15,-40.25,15.82
4:10:11,-0.88,0.37,-0.22,22.82,-45.15,16.31
4:10:11,-0.75,0.36,-0.2,26.67,-48.72,15.26
4:10:11,-0.82,0.33,-0.18,26.32,-45.99,13.23
4:10:11,-0.76,0.3,-0.16,23.24,-41.51,10.43
4:10:11,-0.72,0.29,-0.15,14.98,-38.71,7.28
4:10:11,-0.67,0.3,-0.14,4.13,-36.75,3.01
4:10:11,-0.65,0.33,-0.14,-12.18,-34.44,1.68
4:10:11,-0.66,0.37,-0.15,-28.91,-31.64,0
4:10:11,-0.69,0.39,-0.17,-40.81,-25.69,-4.83
4:10:11,-0.71,0.4,-0.17,-48.37,-19.81,-9.1
4:10:11,-0.67,0.39,-0.17,-51.73,-12.11,-10.57
4:10:11,-0.62,0.39,-0.18,-54.6,-5.32,-10.71
4:10:11,-0.59,0.4,-0.19,-57.19,-2.73,-11.97
4:10:11,-0.57,0.4,-0.2,-53.41,-2.94,-13.58
4:10:11,-0.58,0.41,-0.2,-43.75,-3.78,-13.72
4:10:11,-0.6,0.43,-0.2,-31.78,-3.78,-13.23
4:10:11,-0.64,0.44,-0.2,-19.74,-3.71,-12.88
4:10:11,-0.67,0.45,-0.19,-11.69,-3.92,-12.04
4:10:11,-0.68,0.44,-0.19,-3.29,-6.44,-9.31
4:10:11,-0.7,0.39,-0.21,22.75,-23.24,-0.07
4:10:11,-0.72,0.42,-0.18,68.6,-70.49,17.92
4:10:11,-0.76,0.52,-0.11,110.18,-73.08,42.49
4:10:11,-0.85,0.74,-0.05,140.35,-63.14,63.14
4:10:11,-1.01,0.9,-0.03,163.94,-48.51,72.87
4:10:11,-1.19,1.08,0.08,197.19,-51.59,76.02
4:10:11,-1.46,1.61,0.53,115.22,-99.89,52.85
4:10:11,-1.16,1.49,0.95,-42.35,-51.8,26.25
4:10:11,-1.09,0.93,0.14,-132.72,-19.18,45.36
4:10:11,-1.25,0.72,-0.05,-136.64,-29.19,65.59
4:10:11,-1.44,0.76,0.03,-107.17,-40.32,74.97
4:10:11,-1.48,0.81,0.04,-78.4,-31.85,86.31
4:10:11,-1.5,0.74,-0.05,-111.02,-39.55,81.55
4:10:11,-1.4,0.59,-0.07,-120.54,-32.76,77
4:10:11,-1.31,0.44,-0.17,-119.91,-25.83,72.03
4:10:11,-1.24,0.34,-0.23,-108.01,-23.8,60.48
4:10:11,-1.18,0.24,-0.23,-92.19,-19.11,51.1
4:10:11,-1.19,0.15,-0.22,-66.29,-15.82,45.01
4:10:11,-1.21,0.05,-0.21,-33.18,-16.8,32.9
4:10:11,-1.13,0.03,-0.1,-5.39,-16.52,32.76
4:10:11,-1.04,0.37,0.07,7.84,-12.11,33.81
4:10:11,-1.03,0.58,0.17,-1.75,-4.41,30.24
4:10:11,-1.04,0.58,0.17,-10.64,2.38,26.46
4:10:11,-1.03,0.52,0.15,-19.88,8.26,17.36
4:10:11,-1.03,0.43,0.1,-22.05,9.87,13.72
4:10:11,-1.01,0.37,0.09,-17.64,6.37,13.51
4:10:11,-0.95,0.37,0.11,-18.34,5.88,14.77
4:10:11,-0.89,0.35,0.1,-19.32,9.94,10.71
4:10:11,-0.91,0.32,0.11,-18.34,9.38,5.04
4:10:11,-0.92,0.32,0.16,-18.55,5.11,2.94
4:10:11,-0.92,0.35,0.2,-20.3,0.98,3.22
4:10:11,-0.89,0.39,0.23,-19.74,0.63,3.92
4:10:11,-0.88,0.46,0.23,-19.32,0.98,5.6
4:10:11,-0.88,0.53,0.24,-21.42,-0.49,8.47
4:10:11,-0.88,0.57,0.25,-25.48,-2.59,8.61
4:10:11,-0.88,0.55,0.25,-26.46,-3.29,9.24
4:10:11,-0.89,0.47,0.21,-26.04,-2.94,8.33
4:10:11,-0.91,0.4,0.16,-22.75,-5.53,5.11
4:10:11,-0.9,0.33,0.15,-16.17,-8.54,2.66
4:10:11,-0.87,0.28,0.15,-10.36,-8.82,2.24
4:10:11,-0.85,0.28,0.16,-4.76,-8.47,2.8
4:10:11,-0.81,0.28,0.16,17.57,-9.38,5.67
4:10:11,-0.79,0.34,0.18,2.59,-10.92,9.94
4:10:11,-0.78,0.39,0.19,3.92,-12.81,12.6
4:10:11,-0.8,0.44,0.2,6.72,-13.44,15.26
4:10:11,-0.81,0.51,0.2,7.56,-13.58,16.38
4:10:11,-0.81,0.55,0.19,7.35,-12.39,18.2
4:10:11,-0.79,0.56,0.19,7.35,-11.97,19.95
4:10:11,-0.77,0.5,0.18,8.75,-10.64,20.37
4:10:11,-0.75,0.45,0.16,11.76,-7.56,19.11
4:10:11,-0.75,0.39,0.13,16.66,-5.6,17.01
4:10:11,-0.74,0.36,0.11,20.79,-4.41,14.28
4:10:11,-0.73,0.35,0.11,23.52,-2.87,10.15
4:10:11,-0.72,0.35,0.11,27.16,0,6.65
4:10:11,-0.7,0.37,0.12,30.24,4.27,3.29
4:10:11,-0.7,0.37,0.12,32.41,8.47,-0.91
4:10:11,-0.7,0.37,0.25,34.72,12.04,-5.18
4:10:11,-0.7,0.38,0.14,33.04,14.77,-10.85
4:10:11,-0.69,0.38,0.15,28.77,17.71,-15.75
4:10:11,-0.69,0.37,0.13,24.01,21.07,-21.14
4:10:11,-0.69,0.35,0.1,21.98,25.06,-26.6
4:10:11,-0.69,0.33,0.08,23.94,29.82,-30.03
4:10:11,-0.7,0.29,0.05,28.84,33.88,-33.67
4:10:11,-0.73,0.28,0.03,33.81,36.4,-38.85
4:10:11,-0.75,0.28,0.02,35.77,36.61,-43.4
4:10:11,-0.75,0.29,0,37.17,34.93,-46.97
4:10:11,-0.75,0.34,-0.01,36.47,30.66,-51.87
4:10:11,-0.73,0.38,-0.01,31.78,25.06,-53.83
4:10:11,-0.7,0.42,0,25.83,21.28,-52.36
4:10:11,-0.71,0.44,0,23.31,17.43,-49.35
4:10:11,-0.73,0.44,0.01,27.23,15.4,-45.64
4:10:11,-0.75,0.46,0.04,29.82,15.12,-44.1
4:10:11,-0.77,0.47,0.06,31.01,16.87,-43.33
4:10:11,-0.79,0.5,0.09,28.56,18.83,-44.52
4:10:11,-0.79,0.5,0.11,21.63,21.98,-47.6
4:10:11,-0.78,0.53,0.1,13.65,22.54,-52.5
4:10:11,-0.75,0.59,0.1,-1.19,23.24,-57.05
4:10:11,-0.72,0.62,0.08,-15.75,28.42,-63.21
4:10:11,-0.68,0.65,0.05,-46.55,38.71,-67.76
4:10:11,-0.65,0.63,0,-68.81,48.65,-67.27
4:10:11,-0.65,0.57,-0.05,-76.02,57.33,-62.72
4:10:11,-0.66,0.56,-0.09,-66.22,66.43,-57.33
4:10:11,-0.66,0.51,-0.09,-53.41,70.98,-51.52
4:10:11,-0.69,0.47,-0.09,-29.68,72.59,-41.16
4:10:11,-0.69,0.44,-0.06,-3.22,71.68,-31.71
4:10:11,-0.7,0.44,0,18.76,68.53,-26.81
4:10:11,-0.73,0.41,0.08,36.33,66.15,-19.18
4:10:11,-0.73,0.4,0.18,42.84,67.48,-15.33
4:10:11,-0.81,0.41,0.19,44.03,65.38,-19.04
4:10:11,-0.83,0.45,0.19,33.53,59.99,-20.86
4:10:11,-0.8,0.4,0.23,13.51,54.74,-13.72
4:10:11,-0.81,0.38,0.28,3.36,50.68,-16.45
4:10:11,-0.81,0.32,0.34,-11.76,46.97,-16.73
4:10:11,-0.85,0.36,0.34,-24.36,51.1,-17.29
4:10:11,-1.02,0.37,0.36,-25.9,57.61,-19.46
4:10:11,-1.41,0.57,0.34,-0.56,66.57,-19.25
4:10:11,-1.73,0.85,0.09,44.38,44.03,-7
4:10:11,-1.56,1.21,-0.35,41.3,18.97,5.11
4:10:11,-1.24,0.93,-0.59,29.47,12.53,-0.35
4:10:11,-1.08,0.57,-0.55,45.78,-4.13,19.74
4:10:11,-1,0.5,-0.37,67.83,-9.38,41.3
4:10:11,-1.02,0.44,-0.24,105.84,-8.05,51.8
4:10:11,-1.19,0.38,-0.18,110.11,-7.14,70.63
4:10:11,-1.41,0.44,-0.12,82.95,-1.33,69.79
4:10:11,-1.64,0.49,-0.04,42.28,-10.01,40.04
4:10:11,-1.72,0.38,-0.01,10.43,-18.27,21.91
4:10:11,-1.54,0.36,-0.11,-1.12,-35.07,23.87
4:10:11,-1.38,0.49,-0.13,4.06,-31.57,29.61
4:10:11,-1.18,0.6,-0.19,5.46,-13.3,31.99
4:10:11,-1.03,0.63,-0.28,-8.89,-12.39,28
4:10:11,-0.91,0.58,-0.33,-39.76,-24.43,24.71
4:10:11,-0.86,0.47,-0.34,-55.86,-40.95,28.56
4:10:11,-0.82,0.37,-0.33,-56.28,-51.8,29.47
4:10:11,-0.82,0.3,-0.33,-42.84,-51.31,28.07
4:10:11,-0.85,0.25,-0.35,-22.75,-41.86,23.94
4:10:11,-0.87,0.24,-0.39,-9.52,-25.34,12.25
4:10:11,-0.9,0.18,-0.5,1.33,-10.43,2.87
4:10:11,-0.94,0.17,-0.58,11.34,-0.84,-0.77
4:10:11,-0.95,0.22,-0.58,20.09,11.06,-5.18
4:10:11,-0.97,0.27,-0.55,29.89,28.14,-10.01
4:10:11,-0.98,0.34,-0.45,35.49,39.06,-9.73
4:10:11,-0.97,0.43,-0.33,26.67,49.42,-7.77
4:10:11,-0.95,0.49,-0.23,13.65,63.07,-9.38
4:10:11,-0.95,0.49,-0.18,13.44,73.92,-10.57
4:10:11,-0.94,0.42,-0.11,28.07,81.76,-9.24
4:10:11,-0.93,0.33,0.03,51.45,83.51,-3.99
4:10:11,-1.24,0.33,0.21,37.03,-1.82,-13.37
4:10:11,-1.05,0.19,0.21,11.76,-11.69,-0.28
4:10:11,-0.99,0.26,-0.1,-14.63,7.49,-10.22
4:10:11,-0.97,0.34,-0.33,-27.3,7.7,-20.3
4:10:11,-0.92,0.33,-0.39,-30.17,-4.06,-21.98
4:10:11,-0.82,0.34,-0.37,-23.66,-3.36,-14.98
4:10:11,-0.78,0.4,-0.36,-16.03,4.41,-7.35
4:10:11,-0.78,0.47,-0.37,-6.09,10.36,-5.04
4:10:11,-0.8,0.52,-0.36,10.08,13.51,-3.43
4:10:11,-0.81,0.53,-0.33,28.7,16.8,-0.35
4:10:11,-0.82,0.53,-0.28,41.65,16.8,3.15
4:10:11,-0.84,0.5,-0.2,41.93,15.47,6.02
4:10:11,-0.89,0.48,-0.15,34.09,15.82,3.57
4:10:11,-0.92,0.46,-0.11,20.37,12.95,-0.98
4:10:11,-0.91,0.43,-0.06,1.19,5.53,-3.71
4:10:11,-0.83,0.46,-0.09,-14.28,4.55,-4.83
4:10:11,-0.79,0.49,-0.18,-18.55,8.68,-5.95
4:10:11,-0.78,0.48,-0.25,-17.99,10.57,-3.85
4:10:11,-0.8,0.45,-0.28,-7.77,9.73,-1.82
4:10:11,-0.81,0.41,-0.26,2.31,10.43,0.28
4:10:11,-0.83,0.38,-0.22,7.35,10.36,0.21
4:10:11,-0.86,0.35,-0.18,8.96,8.61,-0.49
4:10:11,-0.89,0.35,-0.16,9.87,4.97,0.84
4:10:11,-0.9,0.36,-0.17,12.53,3.78,0.28
4:10:11,-0.91,0.37,-0.18,15.96,2.94,0.49
4:10:11,-0.92,0.39,-0.2,18.76,0.77,0.84
4:10:11,-0.92,0.4,-0.2,20.86,-1.19,1.12
4:10:11,-0.92,0.4,-0.19,23.73,-4.06,1.96
4:10:11,-0.92,0.4,-0.18,25.48,-7,2.38
4:10:11,-0.92,0.4,-0.18,24.36,-9.24,2.52
4:10:11,-0.91,0.41,-0.16,21.28,-11.69,1.82
4:10:12,-0.81,-0.01,0.03,-30.45,21.28,-17.15
4:10:12,-0.81,0,0.05,-30.1,23.59,-17.29
4:10:12,-0.83,0.01,0.06,-26.74,25.69,-16.8
4:10:12,-0.84,0.02,0.05,-23.17,27.72,-17.29
4:10:12,-0.85,0.03,0.04,-19.46,28.98,-18.13
4:10:12,-0.86,0.04,0.04,-16.59,29.05,-18.34
4:10:12,-0.87,0.05,0.06,-18.83,29.19,-20.37
4:10:12,-0.87,0.04,0.08,-23.1,30.31,-20.51
4:10:12,-0.86,0.04,0.08,-26.25,30.45,-21.63
4:10:12,-0.87,0.03,0.08,-28,29.05,-22.96
4:10:12,-0.88,0.04,0.07,-29.75,24.99,-25.69
4:10:12,-0.88,0.05,0.04,-35.07,20.79,-28.28
4:10:12,-0.87,0.03,0.03,-36.89,17.78,-32.48
4:10:12,-0.86,0.01,0.03,-40.25,17.15,-36.4
4:10:12,-0.86,0,0.05,-49.07,17.08,-37.94
4:10:12,-0.87,-0.04,0.06,-54.53,19.39,-38.92
4:10:12,-0.88,-0.06,0.06,-56.28,21.7,-38.92
4:10:12,-0.89,-0.07,0.08,-55.44,23.66,-37.1
4:10:12,-0.88,-0.06,0.12,-54.95,26.95,-35.56
4:10:12,-0.87,-0.05,0.16,-55.58,30.03,-35.91
4:10:12,-0.88,-0.05,0.18,-57.68,30.03,-37.1
4:10:12,-0.89,-0.06,0.19,-59.57,28.77,-36.68
4:10:12,-0.9,-0.04,0.16,-55.23,26.88,-36.26
4:10:12,-0.89,-0.03,0.13,-50.61,28.35,-32.83
4:10:12,-0.87,0,0.09,-46.97,31.22,-28.56
4:10:12,-0.86,0.04,0.03,-46.41,39.83,-23.45
4:10:12,-0.88,0.03,0.01,-50.4,54.6,-20.09
4:10:12,-0.98,-0.02,-0.03,-51.59,72.45,-11.55
4:10:12,-1.12,-0.09,-0.07,-48.72,88.2,3.71
4:10:12,-1.31,-0.12,-0.14,-37.45,95.62,13.44
4:10:12,-1.44,-0.1,-0.3,-10.92,86.1,40.46
4:10:12,-1.4,0.04,-0.43,-2.94,52.78,67.48
4:10:12,-1.42,0.03,-0.37,-8.68,34.09,93.73
4:10:12,-1.49,-0.15,-0.22,57.75,37.8,126.21
4:10:12,-1.69,-0.19,-0.12,247.94,42.7,146.16
4:10:12,-1.85,0.15,-0.06,333.62,13.3,104.79
4:10:12,-2.01,0.33,0.51,256.34,-24.08,67.55
4:10:12,-2.3,0.4,0.86,59.01,-39.55,54.88
4:10:12,-2.03,-0.01,-0.02,31.43,-43.68,93.66
4:10:12,-1.7,0.07,-0.35,26.25,-38.43,101.85
4:10:12,-1.45,0.18,-0.4,13.51,-36.96,67.83
4:10:12,-1.1,0.15,-0.32,-9.03,-36.26,31.99
4:10:12,-0.79,0.02,-0.27,-36.68,-27.02,15.89
4:10:12,-0.5,-0.04,-0.29,-64.96,-18.27,13.58
4:10:12,-0.5,-0.11,-0.32,-74.27,-21.56,12.04
4:10:12,-0.46,-0.18,-0.36,-67.9,-32.76,16.1
4:10:12,-0.53,-0.17,-0.45,-48.86,-58.94,20.3
4:10:12,-0.67,-0.07,-0.48,-54.95,-83.37,21.28
4:10:12,-0.84,-0.05,-0.49,-61.6,-80.57,13.65
4:10:12,-1.11,0,-0.58,-81.34,-59.01,10.36
4:10:12,-1.32,0.07,-0.59,-114.24,-22.26,10.57
4:10:12,-1.4,0.12,-0.52,-132.93,23.66,7.49
4:10:12,-1.35,0.15,-0.46,-127.68,62.23,-7.42
4:10:12,-1.12,0.18,-0.33,-119.77,83.86,-0.77
4:10:12,-0.96,0.13,-0.29,-100.24,97.86,10.71
4:10:12,-0.89,0.14,-0.28,-67.97,101.22,16.45
4:10:12,-0.9,0.15,-0.28,-28.91,92.89,21.49
4:10:12,-0.92,0.19,-0.26,6.65,85.05,20.44
4:10:12,-0.95,0.2,-0.26,45.5,77.21,17.64
4:10:12,-0.99,0.21,-0.26,68.74,67.97,13.58
4:10:12,-1,0.25,-0.22,74.2,60.27,9.45
4:10:12,-1,0.27,-0.2,63.42,51.94,4.83
4:10:12,-0.97,0.27,-0.15,44.38,48.37,-0.35
4:10:12,-0.96,0.21,-0.12,27.65,49.49,-4.2
4:10:12,-1.01,0.09,-0.12,35.91,46.9,-12.25
4:10:12,-1.12,-0.05,-0.09,65.03,25.55,-24.64
4:10:12,-1.18,-0.1,-0.05,90.3,-1.47,-32.34
4:10:12,-1.16,-0.12,0.02,87.78,-13.44,-28.07
4:10:12,-1.08,-0.16,0.05,58.38,1.19,-4.9
4:10:12,-1.03,-0.15,-0.01,19.39,21.63,20.02
4:10:12,-1.01,-0.07,-0.14,-4.9,28.21,21.14
4:10:12,-1.01,0.01,-0.23,-25.62,22.54,11.62
4:10:12,-0.98,0.06,-0.26,-43.26,10.5,4.97
4:10:12,-0.93,0.09,-0.26,-55.16,0.07,5.25
4:10:12,-0.91,0.12,-0.28,-56.07,-7.42,8.26
4:10:12,-0.9,0.14,-0.28,-45.5,-9.1,11.34
4:10:12,-0.91,0.19,-0.29,-31.92,-9.1,13.58
4:10:12,-0.93,0.25,-0.28,-23.8,-6.37,13.79
4:10:12,-0.93,0.29,-0.29,-18.13,-1.4,8.47
4:10:12,-0.93,0.32,-0.29,-16.03,1.96,-5.32
4:10:12,-0.9,0.25,-0.29,-13.44,7.49,-15.75
4:10:12,-0.9,0.17,-0.29,-6.51,10.78,-11.2
4:10:12,-0.92,0.15,-0.29,-4.13,10.64,-6.3
4:10:12,-0.95,0.12,-0.28,0.56,11.9,-4.62
4:10:12,-0.98,0.09,-0.27,8.75,14.7,-4.62
4:10:12,-0.99,0.06,-0.27,17.71,16.38,-5.04
4:10:12,-0.98,0.04,-0.25,22.26,16.1,-3.64
4:10:12,-0.96,0.05,-0.23,21.7,15.26,-0.35
4:10:12,-0.94,0.06,-0.22,18.76,15.47,1.82
4:10:12,-0.94,0.09,-0.22,13.16,15.19,2.8
4:10:12,-0.97,0.1,-0.23,6.51,14.56,2.87
4:10:12,-1,0.12,-0.23,1.26,13.37,1.61
4:10:12,-0.99,0.12,-0.23,-2.45,13.02,1.4
4:10:12,-0.96,0.13,-0.22,-4.62,13.37,2.24
4:10:12,-0.94,0.14,-0.22,-5.39,13.93,2.31
4:10:12,-0.94,0.15,-0.23,-4.27,12.95,2.66
4:10:12,-0.97,0.16,-0.25,-1.54,10.15,2.31
4:10:12,-1,0.16,-0.26,2.1,8.61,0.98
4:10:12,-1,0.15,-0.26,6.44,8.33,-1.61
4:10:12,-0.97,0.14,-0.25,9.66,8.54,-3.92
4:10:12,-0.93,0.12,-0.24,9.8,7.91,-4.13
4:10:12,-0.91,0.12,-0.23,7.84,7.77,-4.2
4:10:12,-0.93,0.13,-0.23,4.13,6.72,-4.83
4:10:12,-0.97,0.13,-0.23,0.07,6.23,-6.51
4:10:12,-0.99,0.11,-0.23,-0.84,7.21,-7.49
4:10:12,-0.98,0.08,-0.23,1.4,6.93,-7.35
4:10:12,-0.95,0.06,-0.23,3.99,4.9,-5.67
4:10:12,-0.94,0.06,-0.22,8.33,1.96,-3.78
4:10:12,-0.94,0.07,-0.21,11.06,0.56,-4.06
4:10:12,-0.95,0.08,-0.21,10.5,-1.05,-3.85
4:10:12,-0.97,0.09,-0.22,7.63,-2.87,-4.34
4:10:12,-0.98,0.1,-0.23,4.55,-4.27,-4.9
4:10:12,-0.99,0.11,-0.24,0.91,-5.32,-4.41
4:10:12,-0.99,0.12,-0.24,-2.03,-6.86,-5.25
4:10:12,-0.98,0.13,-0.24,-3.64,-7.98,-5.04
4:10:12,-0.96,0.15,-0.25,-5.25,-8.54,-4.55
4:10:12,-0.96,0.16,-0.26,-6.37,-9.87,-2.66
4:10:12,-0.97,0.17,-0.27,-5.88,-10.43,-1.61
4:10:12,-0.98,0.17,-0.27,-3.92,-9.45,-0.14
4:10:12,-0.96,0.16,-0.27,-0.07,-7.42,1.54
4:10:12,-0.94,0.16,-0.27,3.71,-5.6,3.43
4:10:12,-0.92,0.15,-0.28,8.33,-6.37,5.67
4:10:12,-0.92,0.15,-0.27,11.62,-7.84,8.05
4:10:12,-0.94,0.16,-0.26,13.23,-8.05,10.71
4:10:12,-0.97,0.17,-0.25,13.44,-6.37,12.6
4:10:12,-0.97,0.18,-0.24,13.44,-3.01,13.3
4:10:12,-0.96,0.18,-0.24,15.12,0.14,13.93
4:10:12,-0.98,0.16,-0.24,15.89,0.84,14.56
4:10:12,-1,0.13,-0.24,17.43,-0.35,17.22
4:10:12,-1.04,0.12,-0.25,20.58,-1.05,18.13
4:10:12,-1.03,0.1,-0.25,23.17,-3.5,17.15
4:10:12,-0.98,0.09,-0.24,23.8,-7.14,17.5
4:10:12,-0.94,0.1,-0.24,19.81,-12.25,16.38
4:10:12,-0.93,0.1,-0.25,13.3,-18.27,15.47
4:10:12,-0.94,0.12,-0.37,6.37,-21.91,13.51
4:10:12,-0.94,0.14,-0.26,-2.45,-22.68,9.87
4:10:12,-0.94,0.12,-0.27,-8.61,-21.91,7.21
4:10:12,-0.92,0.08,-0.28,-8.12,-20.93,4.97
4:10:12,-0.87,0.05,-0.28,-2.38,-20.44,3.36
4:10:12,-0.85,0.02,-0.29,5.88,-20.93,3.08
4:10:12,-0.86,0.01,-0.29,12.95,-23.03,3.92
4:10:12,-0.88,0.02,-0.27,18.27,-20.58,3.01
4:10:12,-0.9,0.02,-0.27,20.51,-15.19,0.63
4:10:12,-0.9,0,-0.26,22.12,-10.5,-0.49
4:10:12,-0.89,0.01,-0.26,21.21,-5.67,-1.68
4:10:12,-0.89,0.04,-0.27,17.29,-3.85,-2.52
4:10:12,-0.94,0.07,-0.28,12.81,-4.06,-4.34
4:10:12,-0.98,0.11,-0.27,8.54,-2.73,-8.54
4:10:12,-0.98,0.13,-0.24,4.2,2.59,-13.37
4:10:12,-0.96,0.14,-0.23,0.7,8.05,-16.1
4:10:12,-0.94,0.15,-0.23,-2.24,10.64,-16.45
4:10:12,-0.94,0.17,-0.22,-3.99,11.62,-15.54
4:10:12,-0.97,0.2,-0.22,-5.88,13.58,-14.7
4:10:12,-1,0.22,-0.22,-6.86,16.73,-12.32
4:10:12,-0.99,0.23,-0.2,-4.48,24.43,-9.31
4:10:12,-0.97,0.25,-0.2,1.96,30.17,-5.74
4:10:12,-0.95,0.28,-0.21,4.34,32.13,-5.04
4:10:12,-0.92,0.28,-0.22,7.84,28.07,-3.99
4:10:12,-0.89,0.26,-0.21,16.38,23.38,0.42
4:10:12,-0.86,0.25,-0.2,30.1,17.43,8.26
4:10:12,-0.87,0.22,-0.23,55.51,4.97,18.2
4:10:12,-0.92,0.19,-0.24,105.98,-28.98,35.35
4:10:12,-0.92,0.29,-0.16,146.23,-62.3,45.5
4:10:12,-0.9,0.39,-0.08,138.88,-73.71,43.12
4:10:12,-0.86,0.45,-0.02,96.6,-68.39,28.63
4:10:12,-0.82,0.39,0,53.69,-52.43,11.27
4:10:12,-0.8,0.27,0,41.23,-45.71,4.55
4:10:12,-0.79,0.21,0,38.08,-43.61,4.2
4:10:12,-0.8,0.18,0.01,20.44,-40.6,3.78
4:10:12,-0.81,0.15,-0.02,-3.29,-35.14,3.01
4:10:12,-0.84,0.12,-0.08,-26.74,-32.76,3.08
4:10:12,-0.87,0.1,-0.19,-35.42,-35.56,2.45
4:10:12,-0.89,0.11,-0.24,-31.36,-45.29,-0.77
4:10:12,-0.86,0.14,-0.23,-24.99,-55.72,-2.73
4:10:12,-0.78,0.18,-0.19,-14.28,-59.57,0.84
4:10:12,-0.73,0.25,-0.19,-6.3,-62.23,8.47
4:10:12,-0.7,0.26,-0.18,2.45,-69.3,22.68
4:10:12,-0.7,0.32,-0.16,8.33,-75.32,38.36
4:10:12,-0.71,0.37,-0.13,3.15,-72.8,49.21
4:10:12,-0.73,0.41,-0.13,-0.07,-68.11,54.88
4:10:12,-0.8,0.41,-0.15,2.17,-66.57,62.58
4:10:12,-0.89,0.41,-0.16,11.48,-68.6,75.25
4:10:12,-1,0.41,-0.16,23.38,-77.14,90.16
4:10:12,-1.08,0.43,-0.12,45.22,-89.88,107.38
4:10:12,-1.11,0.44,0,67.06,-97.93,111.79
4:10:12,-1.14,0.51,0.14,89.95,-90.37,103.74
4:10:12,-1.24,0.53,0.26,92.4,-80.22,91.42
4:10:12,-1.38,0.55,0.38,58.73,-76.09,82.95
4:10:12,-1.53,0.55,0.49,-8.82,-82.53,82.88
4:10:12,-1.58,0.55,0.42,-94.01,-83.58,73.71
4:10:12,-1.5,0.35,0.15,-139.09,-74.9,68.04
4:10:12,-1.37,0.19,-0.11,-128.31,-76.72,71.26
4:10:12,-1.24,0.13,-0.22,-103.53,-76.58,76.86
4:10:12,-1.26,0.06,-0.24,-64.05,-65.31,77
4:10:12,-1.33,-0.05,-0.18,-8.89,-48.02,70.84
4:10:12,-1.38,-0.18,-0.08,42.63,-27.58,66.71
4:10:12,-1.53,-0.08,0.17,43.26,-21.63,58.03
4:10:12,-1.54,0.07,0.35,-5.46,-17.36,52.57
4:10:12,-1.31,0.37,0.04,-9.45,-24.08,42.28
4:10:12,-1.09,0.44,0.02,-13.51,-22.33,33.6
4:10:12,-0.99,0.4,0.04,-17.29,-13.23,27.23
4:10:12,-0.97,0.35,0.08,-11.13,-6.65,22.33
4:10:12,-1.02,0.34,0.11,-10.78,-4.62,19.04
4:10:12,-1.03,0.35,0.14,-11.55,-5.11,19.39
4:10:12,-0.98,0.4,0.18,-14.14,-2.59,18.27
4:10:12,-0.95,0.4,0.19,-21,2.94,16.52
4:10:12,-0.97,0.38,0.19,-22.4,5.39,13.3
4:10:12,-0.98,0.36,0.23,-23.52,2.87,11.06
4:10:12,-0.96,0.34,0.3,-25.9,1.47,9.87
4:10:12,-0.95,0.33,0.32,-31.57,0.35,8.26
4:10:12,-0.94,0.31,0.28,-36.12,1.26,7.91
4:10:12,-0.93,0.26,0.24,-36.96,1.12,7.35
4:10:12,-0.92,0.24,0.21,-37.87,0.98,8.05
4:10:12,-0.94,0.2,0.18,-35.56,0.21,8.33
4:10:12,-0.94,0.2,0.19,-29.61,-1.82,8.75
4:10:12,-0.93,0.22,0.24,-25.62,-3.15,8.19
4:10:12,-0.91,0.21,0.25,-20.58,-3.57,7.84
4:10:12,-0.9,0.2,0.25,-14.35,-2.8,7.56
4:10:12,-0.87,0.2,0.24,-6.65,-2.8,7.84
4:10:12,-0.85,0.22,0.24,1.54,-2.94,6.93
4:10:12,-0.83,0.24,0.25,5.6,-3.08,6.23
4:10:12,-0.84,0.27,0.25,7.07,-3.85,6.3
4:10:12,-0.87,0.31,0.26,6.86,-6.65,4.97
4:10:12,-0.88,0.32,0.27,4.34,-9.66,4.06
4:10:12,-0.89,0.32,0.28,1.12,-11.41,2.94
4:10:12,-0.9,0.31,0.26,0,-12.25,1.26
4:10:12,-0.87,0.32,0.24,-0.07,-11.34,-1.4
4:10:12,-0.86,0.33,0.23,-1.96,-10.36,-4.2
4:10:12,-0.85,0.34,0.22,-6.51,-10.08,-5.39
4:10:12,-0.83,0.34,0.19,-9.87,-8.4,-8.26
4:10:12,-0.82,0.33,0.18,-12.25,-5.6,-9.1
4:10:12,-0.8,0.32,0.16,-11.34,-4.41,-10.01
4:10:12,-0.79,0.31,0.16,-8.96,-3.08,-12.6
4:10:12,-0.78,0.3,0.17,-7.49,0.35,-14
4:10:12,-0.76,0.28,0.17,-5.11,5.81,-14.63
4:10:12,-0.75,0.28,0.17,-3.5,11.76,-14.07
4:10:12,-0.77,0.29,0.16,-3.01,15.47,-13.16
4:10:12,-0.78,0.29,0.16,-1.82,18.27,-12.95
4:10:12,-0.79,0.28,0.15,3.43,21.7,-11.9
4:10:12,-0.79,0.3,0.14,8.47,24.71,-11.83
4:10:12,-0.81,0.31,0.15,11.83,27.86,-11.97
4:10:12,-0.82,0.31,0.13,15.47,32.06,-12.32
4:10:12,-0.84,0.31,0.1,21.42,35.42,-13.79
4:10:12,-0.85,0.35,0.1,26.81,35.28,-14.77
4:10:12,-0.84,0.39,0.14,26.11,34.93,-15.26
4:10:12,-0.84,0.41,0.17,21.42,36.47,-16.31
4:10:12,-0.86,0.42,0.18,15.75,38.01,-18.9
4:10:12,-0.87,0.4,0.17,11.55,38.29,-21.84
4:10:12,-0.86,0.37,0.16,9.45,37.24,-24.22
4:10:12,-0.85,0.34,0.17,8.4,36.33,-25.27
4:10:12,-0.85,0.33,0.18,4.76,35.77,-26.04
4:10:12,-0.85,0.31,0.18,1.89,34.65,-25.62
4:10:12,-0.86,0.3,0.16,-0.84,33.53,-25.41
4:10:12,-0.85,0.29,0.16,-2.03,33.25,-24.71
4:10:12,-0.87,0.28,0.16,-2.24,34.23,-22.19
4:10:12,-0.88,0.27,0.16,-0.91,35.49,-21.63
4:10:12,-0.89,0.25,0.16,-0.21,36.75,-22.33
4:10:12,-0.89,0.23,0.15,0.84,37.8,-23.31
4:10:12,-0.91,0.21,0.16,2.66,39.34,-22.68
4:10:12,-0.92,0.2,0.12,9.1,38.22,-20.79
4:10:12,-0.92,0.25,0.11,14.63,35.77,-19.88
4:10:12,-0.92,0.3,0.11,16.03,34.93,-20.3
4:10:12,-0.91,0.33,0.12,14.28,33.6,-20.44
4:10:12,-0.89,0.36,0.12,8.68,33.25,-21.35
4:10:12,-0.86,0.36,0.11,0.56,33.46,-21.91
4:10:12,-0.84,0.35,0.09,-7.98,34.37,-22.61
4:10:12,-0.84,0.31,0.06,-13.09,32.34,-24.01
4:10:12,-0.85,0.29,0.06,-14.77,31.15,-23.59
4:10:12,-0.86,0.27,0.06,-14.77,28.14,-22.26
4:10:12,-0.86,0.24,0.09,-12.88,24.29,-21.35
4:10:12,-0.84,0.24,0.11,-16.1,21.63,-21.07
4:10:12,-0.83,0.22,0.11,-23.52,20.93,-21.35
4:10:12,-0.82,0.21,0.13,-31.85,22.96,-21.91
4:10:12,-0.82,0.19,0.13,-39.41,25.2,-24.78
4:10:12,-0.83,0.16,0.15,-42.56,28.42,-24.5
4:10:12,-0.84,0.17,0.15,-44.94,33.6,-30.17
4:10:12,-0.88,0.2,0.12,-42.07,43.96,-30.17
4:10:12,-0.93,0.25,0.08,-34.79,54.39,-35.84
4:10:12,-0.96,0.27,0.04,-31.64,58.24,-39.34
4:10:12,-0.97,0.27,0.02,-26.39,58.24,-39.2
4:10:12,-0.97,0.29,0.01,-19.53,59.85,-36.12
4:10:12,-0.95,0.29,-0.02,-13.02,59.08,-33.67
4:10:12,-0.94,0.31,-0.03,-8.12,58.8,-32.69
4:10:12,-0.89,0.26,-0.01,-7.42,57.96,-28.42
4:10:12,-0.87,0.27,0,-2.03,58.17,-25.41
4:10:12,-0.87,0.27,0.01,6.3,55.79,-24.08
4:10:12,-0.87,0.25,0.01,12.74,49.42,-21.21
4:10:12,-0.86,0.26,0.04,14.35,40.95,-19.25
4:10:12,-0.83,0.29,0.03,16.66,35.56,-16.73
4:10:12,-0.78,0.29,0.02,13.86,30.03,-17.71
4:10:12,-0.73,0.25,0.01,9.17,26.6,-14.7
4:10:12,-0.69,0.25,-0.03,7.07,24.22,-10.22
4:10:12,-0.7,0.26,-0.04,1.12,28.63,-7.49
4:10:12,-0.81,0.25,-0.04,-4.62,43.26,-6.16
4:10:12,-0.96,0.23,-0.04,-13.51,67.2,-5.39
4:10:12,-1.19,0.24,-0.07,-16.45,87.92,-8.54
4:10:12,-1.43,0.21,-0.25,-2.24,101.5,-10.01
4:10:12,-1.57,0.24,-0.34,37.31,90.51,5.11
4:10:12,-1.43,0.32,-0.37,72.8,45.29,18.83
4:10:12,-1.26,0.3,-0.21,97.79,6.02,31.5
4:10:12,-1.26,0.43,0.08,101.29,-21.7,40.81
4:10:12,-1.37,0.48,0.42,50.33,-6.09,12.6
4:10:12,-1.45,0.2,0.12,-23.45,31.99,-1.54
4:10:12,-1.64,0.1,-0.2,-58.66,31.15,0.35
4:10:12,-2.01,0.05,-0.27,-70.28,-5.11,13.72
4:10:12,-2.4,-0.1,-0.26,6.02,-70.21,59.5
4:10:12,-2.33,0.18,-0.16,122.57,-91.98,107.38
4:10:12,-1.69,0.69,-0.13,139.44,-73.85,72.94
4:10:12,-1.06,0.53,-0.09,83.93,-44.03,29.61
4:10:12,-0.73,0.28,-0.17,15.47,-23.17,12.46
4:10:12,-0.56,0.09,-0.26,-46.2,-22.54,9.03
4:10:12,-0.46,-0.07,-0.31,-71.47,-38.57,11.06
4:10:12,-0.37,-0.16,-0.35,-66.29,-58.1,17.22
4:10:12,-0.31,-0.26,-0.39,-42.98,-73.85,42.21
4:10:12,-0.43,-0.24,-0.51,-13.65,-87.08,71.12
4:10:12,-0.81,-0.14,-0.67,15.26,-106.47,76.16
4:10:12,-1.09,-0.05,-0.72,46.27,-98.56,63.56
4:10:12,-1.35,0.05,-0.67,73.36,-63.63,36.26
4:10:12,-1.52,0.19,-0.54,88.27,-3.71,-1.47
4:10:12,-1.57,0.26,-0.44,58.45,56.56,-31.22
4:10:12,-1.38,0.24,-0.37,8.26,90.09,-35.63
4:10:12,-1.17,0.22,-0.29,-26.11,96.67,-33.46
4:10:12,-1.04,0.2,-0.21,-39.27,92.68,-31.92
4:10:12,-0.96,0.22,-0.14,-49.91,90.65,-29.96
4:10:12,-0.91,0.24,-0.14,-60.27,88.41,-32.9
4:10:12,-0.85,0.22,-0.15,-60.55,82.88,-31.78
4:10:12,-0.79,0.22,-0.15,-52.01,76.37,-28
4:10:12,-0.75,0.25,-0.15,-43.12,65.52,-24.08
4:10:12,-0.71,0.29,-0.14,-41.93,56.21,-22.54
4:10:12,-0.73,0.31,-0.14,-43.26,48.02,-19.25
4:10:12,-0.83,0.32,-0.15,-37.94,46.27,-16.59
4:10:12,-0.96,0.28,-0.15,-21.28,51.73,-13.93
4:10:12,-1.05,0.25,-0.15,3.5,62.16,-11.69
4:10:12,-1.13,0.16,-0.2,43.54,58.45,-8.89
4:10:12,-1.15,0.11,-0.2,91.77,28.98,-1.4
4:10:12,-1.09,0.13,-0.15,113.19,-3.71,9.94
4:10:12,-1.02,0.21,-0.07,99.26,-17.08,24.71
4:10:12,-0.98,0.32,-0.06,65.45,-7.77,29.89
4:10:12,-0.99,0.4,-0.12,28.98,4.48,22.33
4:10:12,-0.99,0.43,-0.18,-2.8,6.37,8.4
4:10:12,-0.94,0.4,-0.23,-29.26,-0.07,-0.21
4:10:12,-0.87,0.38,-0.24,-47.95,-5.11,2.31
4:10:12,-0.82,0.37,-0.24,-60.48,-5.32,5.81
4:10:12,-0.83,0.37,-0.24,-56.28,0.84,4.2
4:10:12,-0.88,0.36,-0.23,-44.94,12.25,-2.59
4:10:12,-0.99,0.31,-0.27,-31.29,20.79,-6.23
4:10:12,-1.06,0.24,-0.3,-15.61,20.23,-9.8
4:10:12,-1.02,0.16,-0.27,2.94,15.68,-12.18
4:10:12,-0.94,0.12,-0.23,17.29,13.58,-11.83
4:10:12,-0.9,0.09,-0.21,22.12,11.41,-9.24
4:10:12,-0.92,0.1,-0.21,18.41,6.09,-4.2
4:10:12,-0.96,0.14,-0.2,5.95,0.7,-1.96
4:10:12,-1,0.17,-0.19,-7.56,-1.05,-3.99
4:10:12,-0.98,0.17,-0.2,-14.63,-0.56,-8.47
4:10:12,-0.94,0.17,-0.21,-19.67,-3.29,-8.19
4:10:12,-0.91,0.19,-0.22,-25.97,-7.91,-4.2
4:10:12,-0.92,0.23,-0.24,-29.61,-12.74,-1.54
4:10:12,-0.95,0.27,-0.26,-32.41,-15.61,-0.77
4:10:12,-0.97,0.29,-0.28,-32.97,-15.19,0.07
4:10:12,-0.96,0.3,-0.28,-28.63,-12.04,0.7
4:10:12,-0.93,0.3,-0.3,-22.54,-8.68,0.77
4:10:12,-0.89,0.3,-0.31,-12.74,-6.16,2.03
4:10:12,-0.89,0.31,-0.32,-2.59,-5.25,2.38
4:10:12,-0.92,0.3,-0.32,8.61,-6.37,2.73
4:10:12,-0.95,0.3,-0.3,17.5,-4.2,2.94
4:10:12,-0.93,0.26,-0.27,22.68,0.56,1.4
4:10:12,-0.9,0.23,-0.26,25.13,4.34,0
4:10:12,-0.9,0.22,-0.25,22.75,4.27,-0.98
4:10:12,-0.93,0.22,-0.24,17.08,2.52,-1.33
4:10:12,-0.97,0.22,-0.23,10.08,2.87,-1.4
4:10:12,-0.98,0.23,-0.2,3.57,6.44,-1.89
4:10:12,-0.94,0.22,-0.19,-1.75,11.2,-2.94
4:10:12,-0.91,0.21,-0.2,-5.6,12.04,-3.08
4:10:12,-0.91,0.2,-0.2,-7.35,8.54,-1.54
4:10:12,-0.91,0.2,-0.19,-6.65,3.78,-0.56
4:10:12,-0.92,0.2,-0.18,-4.34,1.68,1.12
4:10:12,-0.94,0.21,-0.18,-2.52,1.05,1.19
4:10:12,-0.96,0.21,-0.19,-0.7,0.63,1.89
4:10:12,-0.96,0.2,-0.2,1.61,-1.75,2.17
4:10:12,-0.96,0.19,-0.21,5.46,-5.6,2.1
4:10:12,-0.96,0.17,-0.21,8.47,-10.29,2.59
4:10:12,-0.95,0.18,-0.2,10.43,-14.14,2.66
4:10:12,-0.93,0.19,-0.18,10.78,-15.47,2.17
4:10:12,-0.91,0.21,-0.18,7.21,-15.05,1.4
4:10:12,-0.87,0.22,-0.17,0.49,-13.37,1.4
4:10:12,-0.84,0.23,-0.17,-6.79,-12.18,0.84
4:10:12,-0.84,0.23,-0.18,-12.74,-13.16,1.26
4:10:12,-0.86,0.23,-0.2,-16.31,-16.59,1.12
4:10:12,-0.87,0.24,-0.2,-15.47,-18.41,-0.49
4:10:12,-0.87,0.24,-0.19,-12.95,-16.45,-1.19
4:10:12,-0.88,0.26,-0.2,-11.76,-14.42,-1.4
4:10:12,-0.92,0.28,-0.21,-13.72,-12.81,-0.28
4:10:12,-0.97,0.3,-0.22,-13.86,-11.97,0.98
4:10:12,-0.99,0.3,-0.21,-9.24,-9.45,-0.14
4:10:12,-0.96,0.29,-0.2,-0.49,-6.37,-2.59
4:10:12,-0.89,0.27,-0.18,6.72,-5.11,-3.15
4:10:12,-0.84,0.25,-0.17,11.2,-5.95,-2.45
4:10:12,-0.81,0.23,-0.16,16.52,-7.14,-1.82
4:10:12,-0.78,0.22,-0.16,21.21,-9.03,1.12
4:10:12,-0.78,0.22,-0.16,24.78,-11.97,5.74
4:10:12,-0.79,0.26,-0.17,27.02,-18.62,7.98
4:10:12,-0.81,0.28,-0.18,29.47,-26.11,8.89
4:10:12,-0.81,0.27,-0.18,36.19,-35.7,10.22
4:10:12,-0.83,0.27,-0.16,48.09,-45.29,11.97
4:10:12,-0.83,0.28,-0.13,52.99,-51.1,11.55
4:10:12,-0.8,0.29,-0.1,51.1,-50.96,10.29
4:10:12,-0.75,0.29,-0.09,40.18,-45.99,9.73
4:10:12,-0.73,0.29,-0.11,23.38,-40.11,10.08
4:10:12,-0.75,0.31,-0.15,6.51,-38.01,11.83
4:10:12,-0.79,0.33,-0.18,-4.06,-42.98,14.91
4:10:12,-0.8,0.34,-0.19,1.68,-51.45,22.05
4:10:12,-0.76,0.36,-0.18,18.27,-61.25,31.64
4:10:12,-0.72,0.4,-0.14,38.08,-74.76,42.84
4:10:12,-0.68,0.46,-0.08,54.18,-75.39,49.77
4:10:12,-0.69,0.53,-0.03,58.17,-63.7,50.19
4:10:12,-0.76,0.55,-0.02,50.68,-51.87,45.5
4:10:12,-0.85,0.54,-0.04,45.57,-48.86,37.94
4:10:12,-0.88,0.46,-0.01,45.08,-56.35,36.61
4:10:12,-0.89,0.37,0.1,56.35,-67.9,42.35
4:10:12,-0.89,0.4,0.18,52.85,-68.46,54.95
4:10:12,-0.94,0.55,0.15,31.08,-55.09,67.34
4:10:12,-1.03,0.68,0,-3.71,-50.75,73.15
4:10:12,-1.13,0.73,-0.09,-47.11,-56.7,74.2
4:10:12,-1.32,0.61,-0.07,-56.98,-61.04,77.77
4:10:12,-1.54,0.58,0,-49.91,-59.78,76.79
4:10:12,-1.67,0.53,0,-74.97,-53.34,65.45
4:10:12,-1.62,0.34,-0.04,-107.38,-45.78,57.75
4:10:12,-1.55,0.15,-0.18,-114.87,-48.09,52.15
4:10:12,-1.5,0.11,-0.25,-108.85,-49.14,47.25
4:10:12,-1.45,0.03,-0.36,-95.34,-43.54,41.3
4:10:12,-1.4,0,-0.36,-68.04,-31.71,26.53
4:10:12,-1.31,-0.06,-0.3,-31.01,-19.74,6.58
4:10:12,-1.22,-0.12,-0.18,9.52,-5.53,-13.37
4:10:12,-1.16,-0.14,-0.03,25.55,3.85,-25.34
4:10:12,-1.08,-0.17,0.13,15.33,8.96,-22.26
4:10:12,-1.03,0.07,0.17,-3.78,5.67,-19.81
4:10:12,-1.07,0.37,0.18,-7.84,1.61,-27.02
4:10:12,-1.1,0.45,0.21,-1.33,-3.15,-23.45
4:10:12,-1.1,0.49,0.27,10.01,-1.89,-16.17
4:10:12,-1.11,0.54,0.33,12.25,2.17,-8.61
4:10:12,-1.12,0.58,0.36,4.83,3.92,-3.57
4:10:12,-1.11,0.58,0.35,-8.68,1.61,-0.49
4:10:12,-1.07,0.51,0.3,-14.77,-3.57,3.57
4:10:12,-1.02,0.46,0.25,-20.3,-6.51,8.54
4:10:12,-0.96,0.41,0.23,-28.56,-7,8.89
4:10:12,-0.95,0.36,0.17,-35.7,-9.66,10.5
4:10:12,-0.92,0.28,0.16,-33.53,-11.62,8.47
4:10:12,-0.91,0.21,0.16,-23.45,-14.21,10.78
4:10:12,-0.9,0.22,0.17,-15.68,-15.12,13.37
4:10:12,-0.9,0.26,0.16,-9.87,-15.05,15.68
4:10:12,-0.89,0.28,0.14,-3.71,-13.16,17.36
4:10:12,-0.88,0.27,0.12,3.08,-12.53,20.72
4:10:12,-0.87,0.26,0.1,10.78,-11.2,25.06
4:10:12,-0.85,0.27,0.07,15.4,-9.73,29.05
4:10:12,-0.85,0.29,0.05,18.2,-9.94,31.71
4:10:12,-0.83,0.32,0.09,19.67,-8.96,34.23
4:10:12,-0.81,0.38,0.13,17.08,-4.06,33.18
4:10:12,-0.81,0.39,0.16,15.33,1.75,30.8
4:10:12,-0.85,0.41,0.16,13.37,4.62,29.12
4:10:12,-0.87,0.45,0.12,8.68,5.67,28.07
4:10:12,-0.87,0.44,0.09,1.61,6.44,25.2
4:10:12,-0.87,0.4,0.06,-4.97,4.2,24.15
4:10:12,-0.85,0.39,0.04,-9.87,1.4,24.57
4:10:12,-0.85,0.41,0.06,-13.79,0.14,25.62
4:10:12,-0.87,0.45,0.09,-17.29,-0.42,26.53
4:10:12,-0.88,0.49,0.12,-21.28,1.26,26.67
4:10:12,-0.9,0.51,0.13,-22.61,4.2,23.03
4:10:12,-0.91,0.5,0.13,-26.32,5.81,18.69
4:10:12,-0.89,0.44,0.11,-29.75,6.23,15.75
4:10:12,-0.87,0.36,0.11,-30.52,5.04,12.46
4:10:12,-0.85,0.29,0.13,-29.4,7,9.24
4:10:12,-0.86,0.21,0.13,-23.03,10.71,6.23
4:10:12,-0.88,0.21,0.14,-14.98,11.2,3.5
4:10:12,-0.87,0.23,0.15,-9.66,13.79,-0.14
4:10:12,-0.87,0.24,0.15,-3.78,16.03,-3.43
4:10:12,-0.87,0.26,0.14,2.59,16.8,-5.25
4:10:12,-0.85,0.28,0.12,8.54,17.5,-7.28
4:10:12,-0.84,0.29,0.13,11.83,18.34,-8.75
4:10:12,-0.83,0.28,0.12,14.07,19.25,-10.01
4:10:12,-0.82,0.27,0.12,15.82,19.74,-11.27
4:10:12,-0.81,0.27,0.11,17.36,21,-11.97
4:10:12,-0.81,0.28,0.1,18.34,22.68,-13.3
4:10:12,-0.81,0.29,0.1,19.46,24.43,-15.12
4:10:12,-0.81,0.32,0.11,18.62,25.41,-17.15
4:10:12,-0.8,0.32,0.11,17.99,27.02,-18.69
4:10:12,-0.8,0.33,0.11,16.87,27.65,-21.21
4:10:12,-0.81,0.34,0.1,15.26,28.63,-24.22
4:10:12,-0.81,0.33,0.09,13.16,28.28,-26.88
4:10:12,-0.82,0.33,0.07,9.52,26.6,-29.61
4:10:12,-0.84,0.33,0.04,7.07,24.99,-31.92
4:10:12,-0.89,0.32,0,4.76,25.2,-33.39
4:10:12,-0.94,0.33,-0.03,5.88,23.24,-34.09
4:10:12,-0.94,0.37,-0.02,7.63,17.78,-34.65
4:10:12,-0.88,0.41,0.01,2.94,15.47,-32.69
4:10:12,-0.88,0.43,0,-0.56,15.89,-33.18
4:10:12,-0.88,0.43,0,-0.14,17.36,-33.6
4:10:12,-0.86,0.45,0.02,-5.11,19.39,-34.02
4:10:12,-0.84,0.44,0.04,-9.38,21.14,-34.23
4:10:12,-0.83,0.44,0.05,-15.89,23.1,-34.16
4:10:12,-0.83,0.42,0.05,-25.06,26.32,-33.32
4:10:12,-0.87,0.4,0.03,-31.5,31.36,-32.9
4:10:12,-0.92,0.36,0,-32.62,34.51,-33.88
4:10:12,-0.92,0.31,0.01,-26.11,33.67,-32.62
4:10:12,-0.93,0.31,0.05,-17.5,30.94,-29.96
4:10:12,-0.93,0.35,0.12,-15.75,35.28,-27.44
4:10:12,-0.93,0.39,0.09,-18.06,40.32,-27.37
4:10:12,-0.95,0.39,0.05,-20.51,39.9,-27.37
4:10:12,-0.97,0.38,0.02,-20.09,37.38,-24.99
4:10:12,-0.98,0.37,0,-16.87,34.72,-22.89
4:10:12,-1.03,0.35,0.02,-15.47,33.6,-22.54
4:10:12,-1.05,0.29,0.07,-17.08,32.83,-21.63
4:10:12,-1.03,0.26,0.11,-22.82,28.28,-22.82
4:10:12,-1.01,0.25,0.14,-31.01,25.9,-23.45
4:10:12,-0.98,0.25,0.11,-37.38,25.06,-21.28
4:10:12,-0.98,0.28,0.08,-41.37,21.91,-20.51
4:10:12,-0.98,0.28,0.08,-42.49,21,-20.44
4:10:12,-0.98,0.27,0.1,-39.2,23.52,-19.67
4:10:12,-0.98,0.28,0.1,-32.83,25.83,-19.88
4:10:12,-0.96,0.28,0.09,-27.58,24.08,-17.99
4:10:12,-0.93,0.31,0.08,-26.39,22.26,-18.2
4:10:12,-0.9,0.31,0.06,-27.51,21.14,-17.92
4:10:12,-0.86,0.29,0.06,-29.96,22.19,-15.75
4:10:12,-0.83,0.28,0.02,-30.17,26.25,-14.21
4:10:12,-0.81,0.26,-0.02,-21.77,30.17,-13.65
4:10:12,-0.79,0.22,-0.05,-15.33,35.77,-11.34
4:10:12,-0.77,0.22,-0.06,-6.79,41.44,-13.09
4:10:12,-0.73,0.15,-0.06,2.87,48.09,-13.3
4:10:12,-0.71,0.11,-0.04,10.85,52.71,-14.63
4:10:12,-0.68,0.1,0.02,16.24,57.89,-17.22
4:10:12,-0.67,0.09,0.08,7.14,58.31,-19.74
4:10:12,-0.69,0.07,0.14,-17.71,50.4,-21.28
4:10:12,-0.69,0.03,0.14,-38.29,44.38,-21.07
4:10:12,-0.73,0.07,0.07,-42.14,42.77,-23.38
4:10:12,-0.73,0.09,0.02,-36.68,43.54,-26.32
4:10:12,-0.71,0.1,0.01,-28.42,40.32,-26.04
4:10:12,-0.71,0.15,0.04,-17.64,35.98,-27.44
4:10:12,-0.71,0.2,0.07,-12.25,32.76,-26.88
4:10:12,-0.75,0.23,0.08,-17.36,33.04,-27.09
4:10:12,-0.87,0.25,0.06,-30.38,45.08,-25.83
4:10:12,-1.15,0.34,-0.03,-37.94,66.85,-31.57
4:10:12,-1.64,0.45,-0.29,-39.27,70.56,-43.47
4:10:12,-1.86,0.38,-0.53,-21.98,63.07,-27.93
4:10:12,-1.6,0.33,-0.59,15.4,50.89,-9.8
4:10:12,-1.2,0.24,-0.46,47.04,26.67,-6.93
4:10:12,-0.95,0.16,-0.33,81.27,5.32,5.6
4:10:12,-0.92,0.16,-0.21,101.29,-14.14,23.03
4:10:12,-0.97,0.19,-0.15,94.99,-23.94,39.69
4:10:12,-1.02,0.19,-0.15,60.48,-15.75,44.59
4:10:12,-1.08,0.18,-0.2,20.51,-1.89,39.83
4:10:12,-1.44,0.23,-0.3,-47.74,9.24,31.15
4:10:12,-1.99,0.31,-0.43,-104.65,19.53,23.8
4:10:12,-2.47,0.31,-0.39,-106.47,47.18,21.49
4:10:12,-3.07,0.06,-0.27,105.91,17.92,53.97
4:10:12,-2.4,1.15,-0.19,194.11,-85.05,61.11
4:10:12,-1.26,1.01,0.07,70.7,-99.96,22.47
4:10:12,-0.77,0.42,-0.01,-26.46,-45.08,-5.81
4:10:12,-0.61,0.1,-0.24,-72.24,-15.19,-2.24
4:10:12,-0.57,0,-0.46,-86.59,-35.63,7.56
4:10:12,-0.43,-0.17,-0.56,-71.75,-75.32,13.72
4:10:12,-0.25,-0.29,-0.62,-17.78,-78.61,24.36
4:10:12,-0.3,-0.28,-0.73,49,-68.39,41.79
4:10:12,-0.41,-0.17,-0.85,116.06,-50.96,47.88
4:10:12,-0.65,0.08,-0.83,134.89,-26.95,35.91
4:10:12,-0.94,0.16,-0.71,119.63,-6.72,23.24
4:10:12,-1.06,0.24,-0.47,88.41,18.41,15.75
4:10:12,-1.12,0.32,-0.27,46.2,51.03,7.35
4:10:12,-1.19,0.37,-0.21,10.71,74.97,-1.96
4:10:12,-1.22,0.43,-0.18,-19.6,89.95,-12.6
4:10:12,-1.2,0.44,-0.15,-43.82,94.78,-22.4
4:10:12,-1.14,0.4,-0.15,-56.28,96.67,-37.1
4:10:12,-1.03,0.28,-0.17,-45.36,92.54,-42.35
4:10:12,-0.89,0.19,-0.15,-26.53,85.05,-36.54
4:10:12,-0.78,0.19,-0.12,-13.51,75.6,-30.17
4:10:12,-0.72,0.19,-0.12,-8.75,62.3,-30.59
4:10:12,-0.75,0.2,-0.14,-12.74,42.49,-33.39
4:10:12,-0.84,0.2,-0.13,-23.45,23.03,-28.07
4:10:12,-0.92,0.23,-0.12,-29.89,13.51,-19.18
4:10:12,-0.99,0.24,-0.13,-27.23,12.53,-13.09
4:10:12,-1.05,0.26,-0.14,-16.1,14.21,-7.77
4:10:12,-1.07,0.27,-0.15,-4.76,15.19,-1.4
4:10:12,-1.06,0.28,-0.15,6.37,13.51,4.55
4:10:12,-1.02,0.29,-0.17,16.24,5.25,9.52
4:10:12,-0.95,0.3,-0.18,16.03,-3.92,11.83
4:10:12,-0.92,0.31,-0.18,9.94,-10.08,13.65
4:10:12,-0.91,0.32,-0.2,-1.68,-13.86,15.19
4:10:12,-0.91,0.32,-0.22,-13.93,-15.05,18.13
4:10:12,-0.91,0.33,-0.24,-21.49,-12.39,18.83
4:10:12,-0.93,0.37,-0.26,-31.36,-8.82,15.54
4:10:12,-0.93,0.34,-0.29,-36.26,-4.41,13.51
4:10:12,-0.93,0.3,-0.31,-29.96,-1.68,13.23
4:10:12,-0.9,0.27,-0.32,-20.65,-0.56,12.67
4:10:12,-0.9,0.21,-0.34,-7.63,-2.38,11.27
4:10:12,-0.91,0.17,-0.34,6.23,-5.39,10.36
4:10:12,-0.94,0.14,-0.32,17.36,-7.77,8.82
4:10:12,-0.96,0.13,-0.3,21.7,-6.93,7.56
4:10:12,-0.98,0.13,-0.26,21.91,-3.22,5.46
4:10:12,-1,0.16,-0.22,11.48,1.12,3.57
4:10:12,-0.99,0.18,-0.2,-3.5,7.07,0.63
4:10:12,-0.96,0.15,-0.21,-5.6,8.47,-2.66
4:10:12,-0.91,0.18,-0.21,-4.62,2.45,-3.08
4:10:12,-0.88,0.22,-0.18,-10.99,-4.13,-0.49
4:10:12,-0.88,0.26,-0.18,-19.32,-7.7,2.17
4:10:12,-0.91,0.3,-0.19,-26.32,-10.71,4.06
4:10:12,-0.92,0.32,-0.21,-28.91,-12.18,5.18
4:10:12,-0.91,0.31,-0.24,-24.57,-12.67,6.44
4:10:12,-0.88,0.3,-0.25,-7.07,-10.43,8.47
4:10:12,-0.87,0.28,-0.28,7,-12.18,9.31
4:10:12,-0.87,0.26,-0.28,18.2,-14.98,10.5
4:10:12,-0.91,0.24,-0.27,24.64,-18.06,12.74
4:10:12,-0.96,0.24,-0.25,27.93,-18.9,13.79
4:10:12,-0.98,0.23,-0.22,27.58,-16.73,12.67
4:10:12,-0.96,0.22,-0.22,23.87,-13.44,10.71
4:10:12,-0.93,0.22,-0.21,18.97,-14,11.27
4:10:12,-0.9,0.24,-0.21,10.85,-17.01,10.64
4:10:12,-0.92,0.25,-0.21,2.94,-20.37,10.57
4:10:12,-0.95,0.27,-0.2,-2.03,-19.67,9.59
4:10:12,-0.95,0.29,-0.2,-6.72,-18.2,8.47
4:10:12,-0.95,0.28,-0.21,-7.84,-16.45,6.65
4:10:12,-0.96,0.27,-0.21,-6.51,-16.38,6.86
4:10:12,-0.97,0.27,-0.23,-4.76,-17.5,5.46
4:10:12,-0.96,0.26,-0.21,-1.19,-17.99,2.8
4:10:12,-0.92,0.24,-0.2,0.77,-17.01,1.96
4:10:12,-0.9,0.24,-0.18,-0.07,-16.03,0.14
4:10:12,-0.87,0.24,-0.16,-1.96,-14.77,-2.38
4:10:12,-0.86,0.25,-0.16,-6.16,-12.67,-3.57
4:10:12,-0.86,0.25,-0.16,-11.2,-12.11,-3.71
4:10:12,-0.91,0.26,-0.17,-15.05,-14.14,-4.69
4:10:12,-0.96,0.25,-0.17,-16.94,-13.79,-5.18
4:10:12,-0.97,0.24,-0.17,-15.05,-11.2,-6.51
4:10:12,-0.94,0.22,-0.17,-8.68,-9.66,-7.77
4:10:12,-0.91,0.19,-0.17,-0.84,-9.59,-8.89
4:10:12,-0.87,0.16,-0.16,10.15,-12.04,-10.08
4:10:12,-0.83,0.12,-0.16,21.98,-14.07,-8.82
4:10:12,-0.83,0.12,-0.17,29.4,-18.48,-3.15
4:10:12,-0.88,0.15,-0.19,29.75,-25.34,4.13
4:10:12,-0.95,0.22,-0.19,25.55,-29.96,5.46
4:10:12,-0.97,0.3,-0.17,17.99,-29.19,0.98
4:10:12,-0.91,0.32,-0.15,11.2,-23.52,-2.94
4:10:12,-0.81,0.32,-0.14,4.76,-15.54,-0.91
4:10:12,-0.73,0.33,-0.14,-4.83,-12.18,3.5
4:10:12,-0.69,0.34,-0.14,-15.33,-9.66,12.46
4:10:12,-0.69,0.37,-0.16,-23.59,-10.5,19.95
4:10:12,-0.73,0.42,-0.19,-28.77,-13.79,23.52
4:10:12,-0.8,0.47,-0.2,-26.95,-16.38,22.05
4:10:12,-0.82,0.48,-0.2,-17.57,-16.17,19.11
4:10:12,-0.78,0.48,-0.18,-5.6,-13.65,17.36
4:10:12,-0.71,0.44,-0.16,7.77,-12.04,18.62
4:10:12,-0.64,0.42,-0.16,22.05,-14,21.14
4:10:12,-0.6,0.39,-0.16,38.36,-22.12,27.02
4:10:12,-0.59,0.38,-0.18,66.22,-41.79,35.91
4:10:12,-0.61,0.43,-0.16,92.47,-74.76,42.56
4:10:12,-0.65,0.5,-0.09,98.42,-87.5,47.46
4:10:12,-0.66,0.53,-0.04,86.24,-85.33,47.74
4:10:12,-0.63,0.53,-0.02,78.05,-79.1,45.71
4:10:12,-0.6,0.53,-0.02,71.26,-74.62,46.41
4:10:12,-0.56,0.57,0.01,58.59,-68.04,46.13
4:10:12,-0.57,0.6,0,29.82,-57.75,41.93
4:10:12,-0.67,0.63,-0.05,-4.2,-48.3,43.4
4:10:12,-0.9,0.6,-0.1,-29.89,-39.27,58.24
4:10:12,-1.11,0.6,-0.13,-29.68,-35.28,79.52
4:10:12,-1.31,0.65,-0.12,24.64,-36.26,95.69
4:10:12,-1.42,0.79,-0.07,62.86,-42.21,94.15
4:10:12,-1.4,0.93,0.01,60.34,-45.36,75.11
4:10:12,-1.39,0.86,0.25,27.44,-39.48,72.8
4:10:12,-1.49,0.77,0.16,-15.96,-43.89,78.75
4:10:12,-1.51,0.68,0.23,-45.5,-49.7,78.54
4:10:12,-1.42,0.56,0.19,-74.13,-40.25,77.28
4:10:12,-1.34,0.43,-0.01,-95.62,-37.03,76.23
4:10:12,-1.29,0.34,-0.17,-91,-41.44,73.36
4:10:12,-1.31,0.32,-0.18,-75.25,-39.69,72.8
4:10:12,-1.41,0.28,-0.1,-57.61,-24.29,64.4
4:10:12,-1.42,0.2,-0.02,-39.2,-15.96,46.48
4:10:12,-1.31,0.13,0.03,-29.54,-13.44,26.11
4:10:12,-1.17,0.03,0.09,-37.94,-14.14,19.39
4:10:12,-1.05,0.03,0.11,-40.04,-13.93,18.06
4:10:12,-1.04,0.22,0.1,-25.06,-12.18,13.58
4:10:12,-1.1,0.41,0.15,-21.28,-11.41,11.2
4:10:12,-1.13,0.52,0.14,-22.68,-11.69,8.05
4:10:12,-1.08,0.55,0.12,-20.37,-9.8,7.98
4:10:12,-1.03,0.61,0.1,-18.55,-8.68,9.52
4:10:12,-0.98,0.63,0.09,-19.46,-6.58,8.75
4:10:12,-0.99,0.59,0.08,-25.62,-6.44,8.33
4:10:12,-0.96,0.53,0.1,-30.38,-6.37,7.7
4:10:12,-0.93,0.47,0.14,-35.7,-4.13,5.67
4:10:12,-0.9,0.4,0.14,-39.83,-0.42,3.85
4:10:12,-0.87,0.33,0.12,-36.89,2.24,3.64
4:10:12,-0.87,0.29,0.12,-29.75,3.57,5.39
4:10:12,-0.88,0.3,0.15,-23.45,5.46,7.28
4:10:12,-0.87,0.32,0.19,-21.56,4.2,8.75
4:10:12,-0.87,0.34,0.21,-23.1,3.43,9.24
4:10:12,-0.87,0.33,0.21,-19.95,4.83,8.75
4:10:12,-0.89,0.34,0.19,-13.44,8.05,4.97
4:10:12,-0.87,0.4,0.18,-9.03,8.82,2.45
4:10:12,-0.81,0.41,0.2,-9.94,5.74,1.96
4:10:12,-0.78,0.39,0.19,-9.52,3.57,5.18
4:10:12,-0.82,0.4,0.17,-3.15,4.41,8.12
4:10:12,-0.9,0.43,0.17,-0.91,5.88,7
4:10:12,-0.96,0.43,0.17,-3.43,6.23,1.82
4:10:12,-0.94,0.41,0.17,-6.09,4.27,-1.54
4:10:12,-0.88,0.39,0.14,-5.6,2.87,-2.17
4:10:12,-0.84,0.4,0.14,-2.73,2.59,-1.82
4:10:12,-0.82,0.42,0.15,1.75,2.8,-1.12
4:10:12,-0.82,0.43,0.17,4.76,3.43,0.21
4:10:12,-0.84,0.42,0.19,3.71,3.78,1.4
4:10:12,-0.87,0.41,0.19,0.7,4.76,1.75
4:10:12,-0.89,0.43,0.18,-1.47,4.69,2.31
4:10:12,-0.88,0.47,0.19,-3.22,4.2,3.64
4:10:12,-0.87,0.5,0.2,-3.29,4.06,4.55
4:10:12,-0.87,0.5,0.2,-2.31,4.41,6.72
4:10:12,-0.87,0.49,0.18,17.64,4.2,9.17
4:10:12,-0.87,0.47,0.17,5.67,3.01,10.5
4:10:12,-0.84,0.46,0.18,9.24,2.38,11.27
4:10:12,-0.83,0.43,0.18,13.09,2.1,11.62
4:10:12,-0.83,0.43,0.18,15.33,1.26,11.06
4:10:12,-0.81,0.43,0.18,15.54,0.63,10.43
4:10:12,-0.82,0.44,0.18,14.49,0.35,8.82
4:10:12,-0.84,0.43,0.17,14.28,0.07,6.86
4:10:12,-0.85,0.43,0.16,16.1,0.07,5.88
4:10:12,-0.85,0.43,0.15,18.55,0.91,5.04
4:10:12,-0.83,0.43,0.14,21.42,1.61,4.06
4:10:12,-0.82,0.45,0.14,22.96,3.08,2.73
4:10:12,-0.82,0.46,0.14,23.87,2.52,1.47
4:10:12,-0.82,0.47,0.16,21.56,2.1,0.35
4:10:12,-0.82,0.49,0.17,19.18,1.68,-1.05
4:10:12,-0.82,0.49,0.16,17.92,1.33,-2.03
4:10:12,-0.82,0.49,0.11,19.67,2.8,-2.59
4:10:12,-0.83,0.53,0.07,23.87,3.64,-4.9
4:10:12,-0.81,0.55,0.07,25.83,4.97,-6.86
4:10:12,-0.79,0.55,0.08,25.2,5.88,-7.91
4:10:12,-0.78,0.55,0.12,21.42,5.11,-7.84
4:10:12,-0.78,0.57,0.14,12.6,4.62,-7.63
4:10:12,-0.81,0.57,0.12,4.62,3.78,-7.35
4:10:12,-0.8,0.56,0.1,1.4,4.06,-6.65
4:10:12,-0.81,0.56,0.08,4.97,5.39,-7.07
4:10:12,-0.84,0.55,0.06,9.73,6.23,-8.54
4:10:12,-0.87,0.53,0.05,12.88,6.02,-10.01
4:10:12,-0.89,0.53,0.07,13.16,4.55,-10.71
4:10:12,-0.88,0.53,0.1,10.5,4.97,-9.94
4:10:12,-0.87,0.53,0.1,8.4,4.48,-9.73
4:10:12,-0.86,0.51,0.08,8.61,5.39,-9.24
4:10:12,-0.87,0.48,0.06,12.25,5.81,-9.38
4:10:12,-0.86,0.47,0.07,16.73,7.7,-9.31
4:10:12,-0.85,0.46,0.1,20.23,9.59,-8.4
4:10:12,-0.85,0.47,0.12,20.86,10.5,-9.17
4:10:12,-0.86,0.47,0.12,19.88,10.92,-8.89
4:10:12,-0.87,0.47,0.08,19.74,10.43,-10.99
4:10:12,-0.87,0.48,0.05,22.47,8.12,-12.46
4:10:12,-0.87,0.5,0.05,23.8,7.21,-13.79
4:10:12,-0.87,0.52,0.08,21.84,7.28,-16.17
