Time,Accel_x,Accel_y,Accel_z,Gyr_x,Gyr_y,Gyr_z
4:10:27,-0.98,0.13,-0.2,-0.98,1.05,0.49
4:10:27,-0.97,0.13,-0.2,-0.77,0.84,0.35
4:10:42,-0.99,0.08,-0.17,-0.7,1.12,1.05
4:10:42,-0.98,0.08,-0.17,-0.84,1.26,0.56
4:10:42,-0.98,0.08,-0.17,-0.98,1.19,1.12
4:10:42,-0.99,0.08,-0.17,-1.19,1.47,0.84
4:10:42,-0.99,0.08,-0.17,-1.82,1.96,0.77
4:10:42,-0.99,0.08,-0.17,-2.1,1.82,0.63
4:10:42,-0.99,0.08,-0.17,-1.54,1.89,1.19
4:10:42,-0.99,0.08,-0.17,-0.35,1.68,1.61
4:10:42,-0.99,0.08,-0.17,0.28,1.96,1.05
4:10:42,-0.99,0.08,-0.18,0.49,2.31,1.61
4:10:42,-0.99,0.07,-0.18,0.56,1.89,1.12
4:10:42,-0.99,0.08,-0.18,0.56,1.47,2.03
4:10:42,-0.99,0.08,-0.17,0.63,1.33,2.31
4:10:42,-0.99,0.08,-0.17,0.49,1.33,2.03
4:10:42,-0.99,0.08,-0.17,0.56,0.98,2.17
4:10:42,-1,0.08,-0.17,0.77,0.84,1.96
4:10:42,-0.99,0.07,-0.17,1.54,0.7,3.08
4:10:42,-0.99,0.08,-0.17,2.38,0.63,3.29
4:10:42,-0.98,0.08,-0.17,2.66,1.19,3.36
4:10:42,-0.99,0.08,-0.17,2.52,1.19,3.22
4:10:42,-0.99,0.08,-0.17,2.24,0.49,3.43
4:10:42,-0.99,0.08,-0.17,2.59,0.7,3.01
4:10:42,-0.99,0.08,-0.17,2.8,0.42,3.01
4:10:42,-0.98,0.08,-0.17,3.64,-0.14,2.94
4:10:42,-0.98,0.08,-0.17,4.06,-0.35,2.87
4:10:42,-0.98,0.08,-0.17,4.48,-0.35,2.8
4:10:42,-0.98,0.08,-0.18,4.9,0,2.52
4:10:42,-0.99,0.09,-0.18,4.62,0.07,2.24
4:10:42,-0.99,0.09,-0.18,3.71,0.42,1.89
4:10:42,-0.99,0.09,-0.17,2.8,0.63,1.33
4:10:42,-0.99,0.1,-0.17,2.1,0.63,1.26
4:10:42,-0.99,0.11,-0.16,1.54,1.12,1.12
4:10:42,-0.99,0.12,-0.16,1.68,0.63,1.61
4:10:42,-0.99,0.13,-0.15,2.17,0.63,1.54
4:10:42,-0.99,0.12,-0.15,2.8,0.35,1.75
4:10:42,-0.99,0.12,-0.16,2.66,0.21,1.4
4:10:42,-0.99,0.11,-0.16,1.47,0,0.91
4:10:42,-0.99,0.11,-0.16,0.98,-0.21,1.12
4:10:42,-0.98,0.12,-0.16,0.63,0.14,1.05
4:10:42,-0.98,0.11,-0.16,0.21,0.84,1.19
4:10:42,-0.98,0.11,-0.16,0.07,0.91,1.26
4:10:42,-0.99,0.1,-0.16,0.07,0.91,0.98
4:10:42,-0.98,0.1,-0.17,-0.07,1.05,1.05
4:10:42,-0.98,0.1,-0.17,-0.28,1.26,0.98
4:10:42,-0.98,0.09,-0.17,-0.77,1.47,0.63
4:10:42,-0.99,0.09,-0.17,-0.63,1.96,0.98
4:10:42,-0.99,0.09,-0.17,-1.05,1.26,0.77
4:10:42,-0.99,0.09,-0.17,-1.26,1.12,0.28
4:10:42,-0.99,0.09,-0.17,-1.47,1.19,0.35
4:10:42,-0.99,0.09,-0.17,-1.4,1.26,0.21
4:10:42,-0.99,0.09,-0.17,-1.89,1.12,0.21
4:10:42,-0.99,0.09,-0.17,-2.38,1.54,0.28
4:10:42,-0.99,0.09,-0.16,-2.38,1.05,-0.07
4:10:42,-0.99,0.09,-0.17,-2.24,1.26,0.21
4:10:42,-0.99,0.09,-0.17,-1.68,0.91,0.42
4:10:42,-0.99,0.09,-0.17,-0.98,0.98,0.98
4:10:42,-0.99,0.09,-0.17,-0.49,0.49,0.84
4:10:42,-0.99,0.09,-0.17,-0.21,-0.21,0.77
4:10:42,-0.99,0.08,-0.17,-0.35,0.28,0.91
4:10:42,-0.99,0.09,-0.17,-0.35,0.21,0.28
4:10:42,-0.99,0.09,-0.17,-0.7,0.7,0.42
4:10:42,-0.98,0.1,-0.17,-1.33,0.63,0.21
4:10:42,-0.98,0.1,-0.16,-1.4,1.26,-0.14
4:10:42,-0.99,0.1,-0.16,-1.4,1.26,-0.42
4:10:42,-0.98,0.1,-0.16,-0.91,1.12,-0.07
4:10:42,-0.98,0.1,-0.16,-0.21,0.91,0.07
4:10:42,-0.98,0.1,-0.17,0.42,0.56,0
4:10:42,-0.98,0.1,-0.17,0.49,0.77,-0.07
4:10:42,-0.99,0.09,-0.17,-0.07,1.12,0.35
4:10:42,-0.99,0.09,-0.17,-0.7,1.68,0.14
4:10:42,-0.99,0.09,-0.17,-1.19,1.89,0.28
4:10:42,-0.99,0.09,-0.17,-1.61,0.91,0.14
4:10:42,-1,0.1,-0.17,-1.75,1.33,0.14
4:10:42,-0.99,0.09,-0.17,-1.47,1.26,0.07
4:10:42,-0.99,0.09,-0.17,-0.7,0.77,0.42
4:10:42,-0.98,0.09,-0.17,-0.56,1.05,0.49
4:10:42,-0.98,0.1,-0.17,-0.84,1.05,0.56
4:10:42,-0.99,0.09,-0.17,-1.82,1.26,0.14
4:10:42,-0.99,0.09,-0.17,-2.8,1.4,0.14
4:10:42,-0.99,0.09,-0.16,-2.87,0.84,-0.07
4:10:42,-0.98,0.09,-0.16,-2.1,0.7,0.21
4:10:42,-0.98,0.09,-0.17,-1.26,0.28,0.28
4:10:42,-0.98,0.09,-0.17,-0.84,0.98,0
4:10:42,-0.98,0.09,-0.18,-1.26,1.26,0.49
4:10:42,-0.98,0.09,-0.17,-2.24,1.89,0.49
4:10:42,-0.98,0.09,-0.17,-2.66,1.89,0.35
4:10:42,-0.99,0.08,-0.16,-2.87,2.45,0.49
4:10:42,-0.99,0.08,-0.16,-2.38,1.82,0.28
4:10:42,-0.99,0.08,-0.17,-1.54,1.4,0.35
4:10:42,-0.99,0.08,-0.17,-0.77,1.47,0.7
4:10:42,-0.99,0.08,-0.17,-0.28,1.54,0.63
4:10:42,-0.99,0.08,-0.18,-0.42,1.61,0.35
4:10:42,-0.99,0.08,-0.17,-0.7,1.33,0.49
4:10:42,-0.99,0.08,-0.17,-0.07,0.98,0.7
4:10:42,-0.98,0.08,-0.17,0.91,0.56,0.91
4:10:42,-0.98,0.08,-0.17,1.4,0.91,0.91
4:10:42,-0.98,0.08,-0.17,0.77,1.05,0.42
4:10:42,-0.99,0.08,-0.18,-0.14,0.98,0.56
4:10:42,-0.99,0.08,-0.17,-1.05,1.33,0.35
4:10:42,-0.99,0.09,-0.17,-1.19,1.4,0.49
4:10:42,-0.99,0.08,-0.17,-0.7,0.98,0.42
4:10:42,-0.98,0.08,-0.17,0.14,1.05,0.49
4:10:42,-0.99,0.08,-0.17,0.84,0.91,1.05
4:10:42,-0.99,0.08,-0.17,1.12,0.98,0.63
4:10:42,-0.99,0.09,-0.17,1.05,0.77,1.05
4:10:42,-0.98,0.09,-0.17,0.84,0.84,0.77
4:10:42,-0.98,0.09,-0.17,1.05,1.12,0.7
4:10:42,-0.99,0.1,-0.16,1.33,0.91,1.19
4:10:42,-0.99,0.1,-0.17,1.33,1.12,0.77
4:10:42,-0.99,0.1,-0.17,0.91,1.33,0.77
4:10:42,-0.99,0.1,-0.17,0.28,1.47,0.98
4:10:42,-0.99,0.09,-0.17,-0.21,1.68,0.84
4:10:42,-0.98,0.09,-0.17,-0.07,1.19,1.26
4:10:42,-0.98,0.1,-0.17,0.07,1.4,1.05
4:10:42,-0.98,0.1,-0.17,0,1.12,1.19
4:10:42,-0.99,0.09,-0.17,-0.63,1.19,0.42
4:10:42,-0.99,0.09,-0.17,-1.26,1.61,0.49
4:10:42,-0.99,0.09,-0.17,-1.68,1.47,0.7
4:10:42,-0.99,0.1,-0.17,-2.03,1.19,0.7
4:10:42,-0.98,0.1,-0.16,-1.89,1.4,0.63
4:10:42,-0.99,0.1,-0.17,-1.68,1.12,0.56
4:10:42,-0.99,0.1,-0.17,-1.54,1.47,0.63
4:10:42,-0.99,0.09,-0.17,-1.54,1.4,0.7
4:10:42,-0.98,0.09,-0.17,-1.75,1.19,0.63
4:10:42,-0.99,0.09,-0.17,-1.82,1.26,0.7
4:10:42,-0.99,0.08,-0.17,-1.26,1.33,0.91
4:10:42,-0.99,0.08,-0.17,-0.91,1.4,0.91
4:10:42,-0.99,0.08,-0.17,-0.98,1.54,1.19
4:10:42,-0.99,0.08,-0.17,-1.19,1.26,0.98
4:10:42,-0.99,0.08,-0.17,-1.26,1.75,1.26
4:10:42,-0.99,0.08,-0.17,-1.4,1.4,0.84
4:10:42,-0.99,0.08,-0.17,-0.91,1.12,1.19
4:10:42,-0.99,0.08,-0.17,-0.28,1.19,1.12
4:10:42,-0.99,0.09,-0.17,0.14,1.19,0.77
4:10:42,-0.98,0.09,-0.17,0.63,0.7,1.05
4:10:42,-0.98,0.09,-0.18,0.77,0.63,0.98
4:10:42,-0.99,0.09,-0.18,0.56,0.77,1.26
4:10:42,-0.99,0.09,-0.17,0.35,0.91,1.05
4:10:42,-0.99,0.08,-0.17,0.14,0.84,0.91
4:10:42,-0.99,0.08,-0.17,-0.14,1.05,0.91
4:10:42,-0.99,0.08,-0.17,-0.35,0.98,0.84
4:10:42,-0.98,0.08,-0.17,-0.21,0.84,1.19
4:10:42,-0.99,0.09,-0.17,0.21,0.91,1.05
4:10:42,-0.99,0.09,-0.17,0.42,1.4,0.91
4:10:42,-0.99,0.09,-0.17,0.49,0.98,1.26
4:10:42,-0.99,0.09,-0.17,0.84,0.56,1.33
4:10:42,-0.99,0.09,-0.17,0.7,0.63,0.98
4:10:42,-0.98,0.09,-0.17,0.42,0.28,1.05
4:10:42,-0.98,0.09,-0.17,0.35,0.56,0.98
4:10:42,-0.98,0.09,-0.17,0.28,0.84,1.33
4:10:42,-0.98,0.09,-0.17,0,1.05,1.12
4:10:42,-0.99,0.1,-0.17,-0.21,1.12,1.05
4:10:42,-0.99,0.09,-0.17,-0.21,1.12,1.54
4:10:42,-0.99,0.09,-0.17,-0.07,1.05,1.68
4:10:42,-0.99,0.09,-0.17,0.07,1.19,1.61
4:10:42,-0.99,0.08,-0.17,-0.07,1.26,1.12
4:10:42,-0.99,0.08,-0.17,-0.7,0.91,1.4
4:10:42,-0.99,0.08,-0.18,-1.19,0.91,0.91
4:10:42,-0.98,0.08,-0.17,-1.05,0.84,1.05
4:10:42,-0.98,0.09,-0.17,-0.77,0.91,1.26
4:10:42,-0.98,0.09,-0.17,-0.63,0.91,0.7
4:10:42,-0.98,0.09,-0.17,-0.14,0.63,1.12
4:10:42,-0.99,0.08,-0.17,0.14,0.63,0.98
4:10:42,-0.99,0.09,-0.18,-0.07,0.91,1.33
4:10:42,-0.99,0.09,-0.18,-0.77,1.12,0.98
4:10:42,-0.99,0.08,-0.17,-0.98,1.19,1.05
4:10:42,-0.99,0.09,-0.17,-0.7,0.63,1.47
4:10:42,-0.99,0.09,-0.16,-0.42,0.56,1.33
4:10:42,-0.99,0.09,-0.17,0.07,0.63,1.47
4:10:42,-0.99,0.08,-0.17,0.35,0.7,1.68
4:10:42,-0.99,0.08,-0.18,0.35,0.7,1.33
4:10:42,-0.99,0.08,-0.18,0.49,0.49,1.61
4:10:42,-0.98,0.09,-0.18,0.28,0.49,1.19
4:10:42,-0.98,0.09,-0.17,-0.07,0.63,1.54
4:10:42,-0.99,0.09,-0.17,-0.35,0.77,1.12
4:10:42,-0.99,0.09,-0.17,-0.14,0.63,1.19
4:10:42,-0.99,0.09,-0.17,0.14,0.49,1.61
4:10:42,-0.99,0.09,-0.17,-0.21,0.49,1.47
4:10:42,-0.99,0.09,-0.17,-0.56,0.35,1.47
4:10:42,-0.99,0.09,-0.17,-0.7,0.42,1.33
4:10:42,-0.98,0.09,-0.17,-0.63,0.56,1.33
4:10:42,-0.99,0.09,-0.17,-0.14,0.56,1.47
4:10:42,-0.98,0.09,-0.17,0.14,0.42,1.26
4:10:42,-0.99,0.09,-0.17,0.07,0.42,1.33
4:10:42,-0.98,0.09,-0.17,-0.49,0.56,0.91
4:10:42,-0.99,0.1,-0.17,-1.12,0.7,1.26
4:10:42,-0.99,0.1,-0.17,-1.12,0.49,0.98
4:10:42,-0.99,0.1,-0.16,-0.91,0.63,1.12
4:10:42,-0.99,0.09,-0.17,-0.63,0.56,1.26
4:10:42,-0.98,0.09,-0.17,-0.21,0.28,1.12
4:10:42,-0.99,0.09,-0.17,-0.35,0.84,0.91
4:10:42,-0.99,0.09,-0.17,-0.84,0.56,1.12
4:10:42,-0.99,0.09,-0.17,-1.19,0.98,1.33
4:10:42,-0.98,0.1,-0.17,-1.19,0.98,1.47
4:10:42,-0.98,0.09,-0.16,-0.49,0.77,1.54
4:10:42,-0.99,0.09,-0.16,-0.77,1.05,1.33
4:10:42,-0.99,0.08,-0.17,-0.63,1.12,1.47
4:10:42,-0.99,0.08,-0.17,-0.49,1.12,1.47
4:10:42,-0.99,0.09,-0.17,-0.7,0.91,1.54
4:10:42,-0.99,0.09,-0.17,-0.63,0.63,1.33
4:10:42,-0.99,0.09,-0.17,-0.14,0.14,1.96
4:10:42,-0.99,0.09,-0.17,0.14,0.35,1.82
4:10:42,-0.99,0.08,-0.17,-0.35,0.35,1.33
4:10:42,-0.99,0.08,-0.17,-0.98,0.14,1.33
4:10:42,-0.99,0.08,-0.17,-0.84,0.35,1.68
4:10:42,-0.99,0.09,-0.17,-0.28,0.42,1.54
4:10:42,-0.99,0.1,-0.17,0.42,0.42,1.61
4:10:42,-0.99,0.09,-0.17,0.63,0.63,1.61
4:10:42,-0.99,0.09,-0.17,0.14,0.49,1.54
4:10:42,-0.99,0.09,-0.17,-0.28,0.63,1.68
4:10:42,-0.98,0.1,-0.16,-0.14,0.21,1.47
4:10:42,-0.99,0.1,-0.16,0.14,0.21,1.75
4:10:42,-0.99,0.1,-0.16,0.14,0.14,1.61
4:10:42,-0.99,0.09,-0.17,0,-0.14,1.96
4:10:42,-0.99,0.09,-0.17,-0.14,-0.14,1.26
4:10:42,-0.98,0.1,-0.17,0,-0.56,1.82
4:10:42,-0.98,0.1,-0.17,0.07,0.07,1.75
4:10:42,-0.99,0.1,-0.17,0.28,0,1.68
4:10:42,-0.98,0.1,-0.17,0.7,0.35,2.17
4:10:42,-0.98,0.1,-0.17,0.49,0.28,1.75
4:10:42,-0.98,0.1,-0.17,-0.21,0.49,1.82
4:10:42,-0.98,0.1,-0.17,-0.7,0.84,1.68
4:10:42,-0.98,0.09,-0.17,-1.05,1.05,1.26
4:10:42,-0.98,0.09,-0.17,-1.4,1.05,1.4
4:10:42,-0.98,0.09,-0.16,-1.61,0.84,0.91
4:10:42,-0.98,0.09,-0.16,-1.54,0.91,1.05
4:10:42,-0.99,0.09,-0.17,-1.4,1.26,0.77
4:10:42,-0.99,0.09,-0.17,-0.98,0.84,0.7
4:10:42,-0.99,0.09,-0.17,-0.63,0.42,0.63
4:10:42,-0.99,0.09,-0.17,-0.28,0.56,0.7
4:10:42,-0.99,0.09,-0.17,0,0.28,0.77
4:10:42,-0.99,0.09,-0.16,0.14,0.56,0.49
4:10:42,-0.99,0.09,-0.16,0.14,0.63,0.77
4:10:42,-0.99,0.09,-0.17,0,1.05,0.49
4:10:42,-0.98,0.09,-0.17,-0.07,1.05,1.05
4:10:42,-0.98,0.09,-0.17,0.42,0.7,1.05
4:10:42,-0.98,0.1,-0.17,0.7,1.05,1.54
4:10:42,-0.99,0.1,-0.17,0.63,1.33,1.12
4:10:42,-1,0.09,-0.17,0.14,1.75,1.05
4:10:42,-0.99,0.08,-0.17,0.21,0.63,1.26
4:10:42,-0.98,0.08,-0.17,0.98,0.63,1.33
4:10:42,-0.99,0.09,-0.17,1.12,-0.07,1.05
4:10:42,-0.99,0.09,-0.17,0.42,0.56,0.7
4:10:42,-0.99,0.09,-0.17,-0.07,0.63,0.35
4:10:42,-0.98,0.09,-0.17,0.42,0.49,0.77
4:10:42,-0.98,0.1,-0.16,1.19,0.42,0.56
4:10:42,-0.99,0.1,-0.16,1.61,0.21,0.7
4:10:42,-0.99,0.1,-0.17,1.82,0.49,0.91
4:10:42,-0.99,0.09,-0.17,2.03,1.19,1.05
4:10:42,-0.99,0.09,-0.17,1.68,1.33,0.84
4:10:42,-0.98,0.1,-0.16,1.19,1.4,1.12
4:10:42,-0.98,0.1,-0.16,0.56,1.89,1.4
4:10:42,-0.99,0.1,-0.16,0.77,0.7,0.91
4:10:42,-0.98,0.1,-0.16,1.47,0.91,0.98
4:10:42,-0.98,0.1,-0.16,1.61,0.77,1.4
4:10:42,-0.98,0.1,-0.17,1.26,1.4,1.61
4:10:42,-0.99,0.1,-0.17,1.61,1.82,1.26
4:10:42,-0.99,0.09,-0.17,1.89,1.68,1.89
4:10:42,-0.98,0.1,-0.17,1.75,1.47,1.82
4:10:42,-0.99,0.1,-0.17,2.03,0.91,1.82
4:10:42,-0.99,0.1,-0.16,2.52,0.63,1.4
4:10:42,-0.99,0.1,-0.16,2.38,0.56,1.68
4:10:42,-0.99,0.09,-0.16,2.24,0.49,1.68
4:10:42,-0.99,0.09,-0.17,2.24,0.21,1.47
4:10:42,-1,0.09,-0.16,2.1,0.14,1.47
4:10:42,-0.99,0.08,-0.16,2.38,0.07,1.54
4:10:42,-0.99,0.09,-0.16,2.52,0.07,1.75
4:10:42,-0.99,0.09,-0.16,2.03,0.49,1.4
4:10:42,-0.99,0.09,-0.17,1.61,0.91,1.68
4:10:42,-0.99,0.09,-0.17,1.05,0.98,1.33
4:10:42,-0.99,0.09,-0.17,1.12,0.91,1.68
4:10:42,-0.98,0.09,-0.16,1.96,0.49,1.82
4:10:42,-0.98,0.1,-0.16,2.52,0.63,2.1
4:10:42,-0.99,0.1,-0.16,2.87,0.77,1.68
4:10:42,-0.99,0.09,-0.17,1.96,1.05,1.68
4:10:42,-0.99,0.09,-0.17,1.26,0.91,1.19
4:10:42,-0.98,0.09,-0.17,0.7,1.54,1.26
4:10:42,-0.98,0.1,-0.17,0.07,1.4,1.05
4:10:42,-0.99,0.09,-0.17,0.49,1.12,0.91
4:10:42,-0.98,0.09,-0.17,1.26,1.05,1.12
4:10:42,-0.99,0.09,-0.16,1.33,1.05,0.98
4:10:42,-0.99,0.09,-0.16,1.26,0.98,1.05
4:10:42,-0.99,0.09,-0.17,1.26,1.12,1.05
4:10:42,-0.98,0.1,-0.17,1.68,0.98,1.19
4:10:42,-0.98,0.1,-0.17,1.4,1.61,1.19
4:10:42,-0.98,0.1,-0.17,0.77,1.89,0.35
4:10:42,-0.99,0.1,-0.17,0.77,1.4,1.05
4:10:42,-0.99,0.1,-0.16,0.77,1.19,1.05
4:10:42,-0.99,0.1,-0.16,0.84,1.26,1.19
4:10:42,-0.99,0.1,-0.17,0.91,1.12,1.54
4:10:42,-0.99,0.09,-0.17,1.05,1.05,0.84
4:10:42,-0.99,0.09,-0.17,0.63,1.26,1.05
4:10:42,-0.99,0.09,-0.17,0.49,1.75,1.33
4:10:42,-0.99,0.1,-0.16,-0.07,1.96,0.91
4:10:42,-0.99,0.1,-0.16,-0.28,1.61,1.4
4:10:42,-0.99,0.1,-0.16,0.07,1.68,1.12
4:10:42,-0.99,0.1,-0.16,0.49,1.54,1.19
4:10:42,-0.99,0.09,-0.17,0.63,1.33,1.05
4:10:42,-0.98,0.09,-0.17,0.84,1.47,0.84
4:10:42,-0.98,0.09,-0.17,0.98,1.05,1.47
4:10:42,-0.98,0.1,-0.17,0.63,0.7,0.7
4:10:42,-0.98,0.1,-0.17,0.63,1.26,0.7
4:10:42,-0.99,0.1,-0.18,0.63,0.91,0.98
4:10:42,-0.99,0.1,-0.17,0.07,0.91,0.98
4:10:42,-0.99,0.1,-0.17,-0.14,1.12,0.98
4:10:42,-0.99,0.09,-0.17,-0.21,1.33,1.19
4:10:42,-0.99,0.09,-0.17,-0.21,0.84,0.98
4:10:42,-0.99,0.09,-0.16,0.07,1.19,1.19
4:10:42,-0.99,0.09,-0.17,0.42,1.26,1.19
4:10:42,-0.99,0.1,-0.17,0.63,0.98,1.4
4:10:42,-0.99,0.1,-0.17,0.63,1.26,1.12
4:10:42,-0.99,0.09,-0.17,0.28,0.7,1.26
4:10:42,-0.99,0.09,-0.17,0.42,0.7,0.77
4:10:42,-0.98,0.09,-0.17,0.77,0.84,0.63
4:10:42,-0.98,0.09,-0.17,1.05,0.91,1.05
4:10:42,-0.98,0.1,-0.17,0.63,1.12,0.35
4:10:42,-0.99,0.1,-0.17,-0.14,1.61,0.77
4:10:42,-0.99,0.09,-0.17,0.28,1.4,0.56
4:10:42,-0.98,0.09,-0.17,0.56,1.12,0.91
4:10:42,-0.98,0.1,-0.17,0.63,1.61,0.98
4:10:42,-0.99,0.09,-0.17,0.91,1.4,0.63
4:10:42,-0.99,0.09,-0.17,0.77,1.4,1.19
4:10:42,-0.99,0.1,-0.17,0.77,0.98,1.12
4:10:42,-0.99,0.1,-0.17,1.12,1.19,0.7
4:10:42,-0.98,0.1,-0.17,1.4,1.05,1.33
4:10:42,-0.99,0.1,-0.17,1.75,1.05,1.05
4:10:42,-0.99,0.1,-0.17,1.54,0.7,0.84
4:10:42,-0.99,0.09,-0.17,1.05,0.84,0.84
4:10:42,-0.99,0.09,-0.17,0.28,1.33,0.49
4:10:42,-0.98,0.09,-0.17,0.56,0.63,0.84
4:10:42,-0.98,0.1,-0.16,0.84,0.56,0.56
4:10:42,-0.98,0.1,-0.16,0.77,0.7,0.49
4:10:42,-0.99,0.1,-0.17,0.49,0.98,0.84
4:10:42,-0.99,0.09,-0.17,0.14,1.12,0.56
4:10:42,-0.98,0.09,-0.17,0.07,1.12,0.49
4:10:42,-0.98,0.1,-0.17,0.07,1.19,0.7
4:10:42,-0.98,0.1,-0.17,0.42,0.84,0.49
4:10:42,-0.99,0.1,-0.17,0.77,0.84,0.49
4:10:42,-0.99,0.09,-0.17,0.77,0.84,0.7
4:10:42,-0.98,0.09,-0.17,0.28,1.47,0.21
4:10:42,-0.98,0.09,-0.17,-0.49,1.96,0.35
4:10:42,-0.99,0.09,-0.17,-0.77,1.68,0.07
4:10:42,-0.99,0.09,-0.17,-0.77,1.26,-0.21
4:10:42,-0.99,0.09,-0.17,-0.28,1.12,0.14
4:10:42,-0.99,0.09,-0.17,-0.14,1.26,0.14
4:10:42,-0.99,0.09,-0.17,0,0.91,0.28
4:10:42,-0.99,0.09,-0.17,0,1.33,0.28
4:10:42,-0.99,0.09,-0.17,-0.07,1.33,0.14
4:10:42,-0.99,0.09,-0.17,-0.28,1.47,0.28
4:10:42,-0.99,0.09,-0.17,-0.21,1.12,0.07
4:10:42,-0.99,0.09,-0.17,0.07,0.84,0.49
4:10:42,-0.99,0.09,-0.17,0.49,1.33,0.28
4:10:42,-0.98,0.09,-0.17,0.91,0.7,0.77
4:10:42,-0.98,0.09,-0.17,0.77,1.05,1.19
4:10:42,-0.98,0.09,-0.17,0.35,1.61,0.56
4:10:42,-0.99,0.09,-0.17,-0.35,1.89,0.63
4:10:42,-0.99,0.09,-0.17,-0.7,1.54,0.56
4:10:42,-0.99,0.09,-0.17,-0.28,1.47,0.63
4:10:42,-0.98,0.09,-0.17,0,1.4,0.7
4:10:42,-0.99,0.08,-0.17,-0.07,1.75,0.49
4:10:42,-0.99,0.08,-0.17,-0.42,1.61,0.21
4:10:42,-0.99,0.08,-0.18,-0.42,1.61,0.28
4:10:42,-0.99,0.09,-0.17,0.07,1.19,0.56
4:10:42,-0.98,0.09,-0.17,0.49,0.98,0.63
4:10:42,-0.98,0.09,-0.17,0.91,0.98,0.63
4:10:42,-0.99,0.09,-0.17,1.47,0.91,0.7
4:10:42,-0.99,0.09,-0.17,1.26,0.98,0.7
4:10:42,-0.99,0.09,-0.17,0.91,1.12,0.77
4:10:42,-0.99,0.1,-0.17,0.63,1.12,0.49
4:10:42,-0.99,0.1,-0.17,0.49,0.63,0.63
4:10:42,-0.98,0.09,-0.17,0.35,0.98,0.91
4:10:42,-0.98,0.09,-0.17,0.07,1.61,0.49
4:10:42,-0.98,0.09,-0.17,-0.14,1.33,0.42
4:10:42,-0.99,0.1,-0.17,-0.07,1.61,0.28
4:10:42,-0.98,0.09,-0.17,0.07,1.4,0.91
4:10:42,-0.99,0.09,-0.17,0,1.89,0.7
4:10:42,-0.99,0.09,-0.18,0.28,1.75,0.63
4:10:42,-0.99,0.09,-0.18,0.28,1.12,0.42
4:10:42,-0.99,0.09,-0.17,-0.14,1.12,0.28
4:10:42,-0.99,0.09,-0.17,-0.56,1.12,0.56
4:10:42,-0.99,0.09,-0.17,-0.35,1.26,0.35
4:10:42,-0.99,0.09,-0.17,0.07,1.19,0.49
4:10:42,-0.98,0.09,-0.17,0,1.33,0.14
4:10:42,-0.98,0.09,-0.18,-0.28,1.54,0.28
4:10:42,-0.99,0.08,-0.18,-0.7,1.47,0.28
4:10:42,-0.98,0.09,-0.17,-0.77,1.68,0.35
4:10:42,-0.98,0.09,-0.17,-0.7,1.68,0.7
4:10:42,-0.99,0.09,-0.17,-0.35,1.89,0.56
4:10:42,-0.99,0.08,-0.17,-0.28,1.33,0.49
4:10:42,-0.99,0.08,-0.17,-0.07,1.19,0.77
4:10:42,-0.98,0.09,-0.18,0.14,0.98,0.7
4:10:42,-0.99,0.09,-0.18,-0.21,0.98,0.42
4:10:42,-0.99,0.09,-0.17,-0.63,0.91,0.28
4:10:42,-0.99,0.08,-0.18,-0.77,0.91,0.7
4:10:42,-0.98,0.08,-0.17,-0.91,0.84,0.28
4:10:42,-0.98,0.08,-0.17,-0.63,1.4,0.56
4:10:42,-0.99,0.09,-0.18,-0.63,1.33,0.63
4:10:42,-0.99,0.09,-0.17,-0.28,1.4,0.98
4:10:42,-0.98,0.09,-0.17,0.42,1.4,1.05
4:10:42,-0.98,0.09,-0.17,0.7,1.33,1.05
4:10:42,-0.99,0.09,-0.17,0.21,0.84,1.05
4:10:42,-0.99,0.09,-0.17,0.49,0.98,1.12
4:10:42,-0.99,0.08,-0.18,-0.07,1.68,0.84
4:10:42,-0.99,0.08,-0.18,-0.49,1.33,0.98
4:10:42,-0.99,0.08,-0.17,-0.42,1.12,0.7
4:10:42,-0.99,0.08,-0.17,-0.35,1.47,0.7
4:10:42,-0.99,0.09,-0.18,-0.14,1.19,0.77
4:10:42,-0.98,0.09,-0.18,0.07,0.91,0.91
4:10:42,-0.98,0.09,-0.18,0.14,0.77,0.42
4:10:42,-0.98,0.09,-0.17,0.21,1.12,0.28
4:10:42,-0.99,0.09,-0.18,0.21,1.33,1.12
4:10:42,-0.99,0.08,-0.18,0.14,1.19,0.84
4:10:42,-0.99,0.08,-0.18,0.42,0.98,0.77
4:10:42,-0.98,0.08,-0.18,1.05,0.77,1.19
4:10:42,-0.99,0.09,-0.17,1.19,0.98,0.84
4:10:42,-0.99,0.09,-0.17,0.77,1.26,1.26
4:10:42,-0.99,0.08,-0.18,0.21,1.4,0.84
4:10:42,-0.99,0.08,-0.18,-0.07,1.54,1.12
4:10:42,-0.99,0.09,-0.17,-0.28,1.54,1.26
4:10:42,-0.98,0.09,-0.17,-0.21,1.19,1.4
4:10:42,-0.98,0.09,-0.18,0.56,0.7,1.05
4:10:42,-0.99,0.09,-0.18,0.98,0.56,1.4
4:10:42,-0.99,0.09,-0.18,0.7,0.49,1.26
4:10:42,-0.99,0.09,-0.18,0.14,0.63,1.4
4:10:42,-0.98,0.08,-0.18,0,1.05,0.98
4:10:42,-0.99,0.09,-0.18,0,0.56,1.33
4:10:42,-0.99,0.09,-0.17,0.14,0.98,1.05
4:10:42,-0.99,0.09,-0.18,-0.07,0.91,1.05
4:10:42,-0.98,0.09,-0.18,-0.21,0.98,0.84
4:10:42,-0.98,0.09,-0.18,-0.21,0.91,0.77
4:10:42,-0.98,0.09,-0.18,0.28,0.84,1.19
4:10:42,-0.98,0.08,-0.18,0.77,0.98,0.84
4:10:42,-0.98,0.09,-0.18,0.7,0.77,0.77
4:10:42,-0.99,0.09,-0.18,0.28,1.19,0.28
4:10:42,-0.99,0.09,-0.18,0,0.91,0.84
4:10:42,-0.99,0.08,-0.17,-0.14,1.19,0.63
4:10:42,-0.99,0.09,-0.17,-0.14,0.98,0.49
4:10:42,-0.99,0.09,-0.17,0,0.56,0.77
4:10:42,-0.99,0.09,-0.17,0.35,0.77,0.56
4:10:42,-0.98,0.09,-0.18,0.35,1.26,0.77
4:10:42,-0.98,0.09,-0.19,0.56,1.19,1.26
4:10:42,-0.98,0.09,-0.18,0.7,1.54,1.4
4:10:42,-0.98,0.1,-0.18,1.12,1.47,1.54
4:10:42,-0.98,0.09,-0.18,0.91,1.26,0.84
4:10:42,-0.99,0.08,-0.18,-0.14,1.75,0.84
4:10:42,-0.98,0.08,-0.18,-0.98,1.61,0.42
4:10:42,-0.99,0.08,-0.18,-1.33,1.47,0.56
4:10:42,-0.99,0.08,-0.17,-0.98,1.19,1.12
4:10:42,-0.98,0.09,-0.17,-0.14,1.05,0.84
4:10:42,-0.98,0.09,-0.17,0.77,0.91,0.98
4:10:42,-0.99,0.09,-0.17,0.84,0.7,1.05
4:10:42,-0.99,0.09,-0.17,0.56,0.84,0.98
4:10:42,-0.99,0.08,-0.18,0.35,0.84,0.77
4:10:42,-0.98,0.09,-0.18,0.35,0.84,0.49
4:10:42,-0.98,0.1,-0.17,0.07,1.26,0.07
4:10:42,-0.99,0.1,-0.18,0,0.77,0.35
4:10:42,-0.99,0.09,-0.18,0.07,0.84,0.21
4:10:42,-0.99,0.09,-0.17,-0.07,0.98,0.77
4:10:42,-0.99,0.09,-0.18,0.14,0.77,0.7
4:10:42,-0.98,0.09,-0.17,0.63,0.91,0.98
4:10:42,-0.99,0.09,-0.17,0.84,0.63,0.84
4:10:42,-0.99,0.09,-0.18,0.77,0.63,1.05
4:10:42,-0.99,0.08,-0.18,0.63,0.56,0.84
4:10:42,-0.98,0.08,-0.18,-0.07,0.91,0.56
4:10:42,-0.98,0.09,-0.18,-0.63,0.91,0.49
4:10:42,-0.98,0.09,-0.18,-1.12,1.26,0.56
4:10:42,-0.99,0.09,-0.17,-1.4,0.98,0.14
4:10:42,-0.99,0.09,-0.17,-1.54,0.98,0.77
4:10:42,-0.99,0.09,-0.17,-1.33,0.84,0.63
4:10:42,-0.99,0.09,-0.17,-0.98,0.91,0.63
4:10:42,-0.98,0.09,-0.17,-0.77,0.56,0.49
4:10:42,-0.99,0.08,-0.17,-0.63,0.49,1.05
4:10:42,-0.99,0.08,-0.17,-0.56,0.35,0.63
4:10:42,-0.99,0.08,-0.17,-0.63,1.19,0.7
4:10:42,-0.99,0.08,-0.17,-0.7,1.19,1.26
4:10:42,-0.99,0.08,-0.17,-0.7,1.47,0.77
4:10:42,-0.99,0.08,-0.17,-0.07,0.84,1.19
4:10:42,-0.98,0.08,-0.18,0.56,0.49,1.12
4:10:42,-0.99,0.08,-0.18,0.56,0.56,0.84
4:10:42,-0.99,0.08,-0.18,0.21,0.7,1.26
4:10:42,-0.99,0.08,-0.18,-0.42,0.84,1.19
4:10:42,-0.98,0.08,-0.17,-0.49,0.42,1.12
4:10:42,-0.99,0.09,-0.17,-0.21,0.63,0.77
4:10:42,-0.99,0.09,-0.17,0.07,0.56,0.84
4:10:42,-0.99,0.09,-0.17,0.35,0.49,0.7
4:10:42,-0.98,0.09,-0.18,0.42,0.91,0.56
4:10:42,-0.99,0.09,-0.18,0.07,0.98,0.84
4:10:42,-0.99,0.09,-0.18,-0.42,0.63,0.7
4:10:42,-0.98,0.1,-0.18,-1.12,0.84,0.56
4:10:42,-0.99,0.09,-0.17,-1.82,1.12,0.56
4:10:42,-0.99,0.08,-0.17,-1.61,0.91,0.56
4:10:42,-0.98,0.08,-0.17,-0.98,0.49,0.84
4:10:42,-0.98,0.09,-0.17,-0.98,0.84,0.91
4:10:42,-0.99,0.09,-0.17,-1.26,0.98,0.49
4:10:42,-0.99,0.08,-0.17,-1.19,0.77,1.05
4:10:42,-0.99,0.08,-0.17,-1.33,1.26,0.84
4:10:42,-0.99,0.09,-0.17,-1.4,1.33,0.63
4:10:42,-0.99,0.09,-0.17,-1.33,1.19,0.28
4:10:42,-0.99,0.08,-0.18,-0.91,0.35,0.63
4:10:42,-0.99,0.08,-0.18,-1.05,0.84,0.7
4:10:42,-0.99,0.09,-0.17,-1.19,0.91,0.42
4:10:42,-0.98,0.09,-0.18,-1.4,1.05,0.63
4:10:42,-0.99,0.1,-0.17,-1.54,1.19,0.63
4:10:42,-0.98,0.09,-0.17,-1.61,0.98,0.77
4:10:42,-0.98,0.09,-0.18,-1.47,1.12,0.56
4:10:42,-0.98,0.09,-0.18,-1.19,1.05,1.12
4:10:42,-0.99,0.09,-0.18,-0.91,1.05,1.05
4:10:42,-0.99,0.09,-0.18,-1.4,1.12,0.98
4:10:42,-0.99,0.08,-0.18,-1.82,1.19,0.77
4:10:42,-0.99,0.08,-0.17,-1.96,0.98,0.84
4:10:42,-0.99,0.08,-0.17,-1.96,0.77,0.63
4:10:42,-0.99,0.08,-0.17,-1.19,0.7,0.63
4:10:42,-0.99,0.08,-0.17,-0.63,0.7,0.7
4:10:42,-0.99,0.08,-0.18,-0.28,0.28,1.05
4:10:42,-0.98,0.08,-0.18,0,0.56,0.84
4:10:42,-0.98,0.08,-0.18,-0.21,0.98,1.12
4:10:42,-0.98,0.09,-0.18,-0.42,0.7,1.05
4:10:42,-0.98,0.09,-0.18,-0.42,0.84,0.98
4:10:42,-0.98,0.09,-0.18,-0.56,0.91,0.84
4:10:42,-0.98,0.09,-0.18,-0.49,0.63,1.47
4:10:42,-0.99,0.09,-0.18,-0.21,1.05,1.12
4:10:42,-0.99,0.09,-0.18,-0.35,0.28,1.33
4:10:42,-0.99,0.09,-0.18,-0.49,0.42,1.26
4:10:42,-0.99,0.09,-0.18,-0.84,1.12,0.98
4:10:42,-0.99,0.08,-0.18,-1.4,1.19,0.84
4:10:42,-0.99,0.08,-0.18,-1.33,0.98,1.33
4:10:42,-0.98,0.08,-0.17,-0.28,0.42,1.33
4:10:42,-0.99,0.08,-0.17,0.28,0.49,1.26
4:10:42,-0.99,0.09,-0.17,0.42,0.42,1.19
4:10:42,-0.99,0.09,-0.18,0.49,0.35,1.26
4:10:42,-0.99,0.09,-0.17,0.84,0.49,1.19
4:10:42,-0.98,0.09,-0.17,0.7,0.42,1.12
4:10:42,-0.98,0.09,-0.18,0.56,0.42,1.26
4:10:42,-0.98,0.09,-0.18,0.84,0.63,1.12
4:10:42,-0.98,0.09,-0.18,0.91,0.84,1.12
4:10:42,-0.98,0.09,-0.18,0.56,0.84,1.12
4:10:42,-0.99,0.09,-0.18,0.42,1.12,1.33
4:10:42,-0.99,0.08,-0.18,0.21,1.4,1.47
4:10:42,-0.99,0.09,-0.18,-0.21,1.54,1.54
4:10:42,-0.98,0.09,-0.17,-0.56,1.12,0.98
4:10:42,-0.99,0.09,-0.17,-0.35,1.26,1.12
4:10:42,-0.99,0.09,-0.17,-0.14,1.19,0.98
4:10:42,-0.99,0.08,-0.17,-0.07,1.26,1.05
4:10:42,-0.99,0.09,-0.17,0.07,1.12,0.84
4:10:42,-0.99,0.09,-0.17,0.56,0.77,0.98
4:10:42,-0.99,0.09,-0.17,1.12,0.63,0.98
4:10:42,-0.99,0.09,-0.17,1.61,0.49,1.05
4:10:42,-0.99,0.09,-0.18,2.03,0.7,1.19
4:10:42,-0.99,0.08,-0.18,1.89,1.12,1.12
4:10:42,-0.98,0.09,-0.17,1.61,1.33,1.26
4:10:42,-0.98,0.09,-0.17,1.19,1.75,1.33
4:10:42,-0.99,0.09,-0.17,0.84,2.03,0.98
4:10:42,-0.98,0.09,-0.17,0.7,2.1,1.05
4:10:42,-0.98,0.09,-0.17,0.84,1.89,0.98
4:10:42,-0.98,0.09,-0.18,1.4,1.75,1.26
4:10:42,-0.98,0.09,-0.18,1.96,1.4,1.33
4:10:42,-0.98,0.09,-0.18,2.03,1.12,1.12
4:10:42,-0.99,0.09,-0.18,1.26,0.98,1.4
4:10:42,-0.99,0.09,-0.18,0.63,1.33,0.84
4:10:42,-0.99,0.09,-0.17,0.28,0.84,0.84
4:10:42,-0.99,0.1,-0.17,0.07,1.33,0.84
4:10:42,-0.99,0.09,-0.17,0.14,1.33,0.98
4:10:42,-0.99,0.09,-0.18,0.28,1.19,1.12
4:10:42,-0.99,0.09,-0.18,0.21,1.47,1.47
4:10:42,-0.99,0.08,-0.17,-0.14,1.96,1.26
4:10:42,-0.99,0.08,-0.17,-0.49,1.75,1.47
4:10:42,-0.99,0.09,-0.17,-0.21,1.26,1.47
4:10:42,-0.99,0.09,-0.17,0.56,1.12,2.1
4:10:42,-0.99,0.09,-0.17,1.12,0.7,1.4
4:10:42,-0.99,0.08,-0.18,1.12,0.7,1.33
4:10:42,-0.99,0.08,-0.18,0.91,0.98,1.61
4:10:42,-0.98,0.08,-0.18,0.56,1.12,1.61
4:10:42,-0.98,0.09,-0.18,0.63,1.4,1.61
4:10:42,-0.98,0.09,-0.18,0.35,1.89,1.4
4:10:42,-0.99,0.09,-0.17,0.35,1.75,1.54
4:10:42,-0.99,0.09,-0.17,0.63,1.82,1.68
4:10:42,-0.98,0.08,-0.17,0.77,1.68,1.89
4:10:42,-0.99,0.08,-0.17,0.35,1.47,1.26
4:10:42,-0.99,0.09,-0.18,0.63,1.47,1.96
4:10:42,-0.99,0.09,-0.18,0.35,1.68,1.61
4:10:42,-0.98,0.09,-0.18,-0.07,1.47,1.82
4:10:42,-0.98,0.09,-0.18,-0.35,1.19,1.05
4:10:42,-0.99,0.09,-0.18,-0.77,1.47,0.84
4:10:42,-0.99,0.09,-0.18,-0.84,1.68,1.54
4:10:42,-0.99,0.08,-0.17,-0.63,2.03,1.12
4:10:42,-0.99,0.08,-0.17,-0.49,2.38,1.68
4:10:42,-0.99,0.08,-0.17,-0.28,1.47,1.4
4:10:42,-0.99,0.08,-0.17,0.07,0.84,1.61
4:10:42,-0.99,0.08,-0.18,0.56,0.98,1.75
4:10:42,-0.99,0.08,-0.18,1.05,1.26,1.82
4:10:42,-0.99,0.08,-0.18,1.12,1.12,2.1
4:10:42,-0.99,0.08,-0.18,1.33,1.54,1.61
4:10:42,-0.98,0.08,-0.18,1.33,1.47,2.17
4:10:42,-0.99,0.09,-0.18,1.19,1.75,2.17
4:10:42,-0.99,0.09,-0.18,1.4,1.61,1.89
4:10:42,-0.98,0.09,-0.18,1.82,1.54,2.59
4:10:42,-0.98,0.09,-0.18,1.96,1.4,2.17
4:10:42,-0.98,0.09,-0.18,1.96,1.54,2.59
4:10:42,-0.98,0.09,-0.18,2.31,1.26,2.73
4:10:42,-0.98,0.09,-0.18,2.73,1.33,2.8
4:10:42,-0.98,0.09,-0.18,2.45,1.54,2.94
4:10:42,-0.98,0.09,-0.18,2.31,1.82,2.59
4:10:42,-0.98,0.09,-0.18,2.03,2.1,2.73
4:10:42,-0.98,0.09,-0.18,1.19,1.54,2.8
4:10:42,-0.98,0.09,-0.18,1.54,1.33,2.52
4:10:42,-0.98,0.09,-0.19,2.1,1.47,2.38
4:10:42,-0.98,0.09,-0.18,1.96,1.26,2.31
4:10:42,-0.98,0.09,-0.18,1.68,1.96,1.89
4:10:42,-0.98,0.09,-0.18,1.54,2.03,2.45
4:10:42,-0.98,0.09,-0.18,1.19,2.17,2.31
4:10:42,-0.99,0.09,-0.18,0.98,2.1,2.31
4:10:42,-0.99,0.1,-0.18,1.05,2.17,2.8
4:10:42,-0.99,0.1,-0.18,1.19,1.61,2.03
4:10:42,-0.98,0.09,-0.18,1.89,1.33,2.31
4:10:42,-0.98,0.09,-0.18,2.59,1.05,2.38
4:10:42,-0.98,0.09,-0.18,3.08,1.26,2.94
4:10:42,-0.98,0.09,-0.19,3.15,1.75,3.01
4:10:42,-0.98,0.1,-0.18,2.73,1.33,3.36
4:10:42,-0.98,0.09,-0.19,2.17,2.59,2.94
4:10:42,-0.98,0.1,-0.19,2.31,2.45,3.22
4:10:42,-0.98,0.09,-0.19,2.52,2.52,3.15
4:10:42,-0.99,0.1,-0.18,2.24,1.96,2.94
4:10:42,-0.98,0.09,-0.19,2.24,1.82,2.87
4:10:42,-0.98,0.09,-0.19,2.24,1.54,2.52
4:10:42,-0.98,0.1,-0.19,1.96,1.47,2.24
4:10:42,-0.98,0.09,-0.19,1.82,2.17,2.87
4:10:42,-0.98,0.09,-0.18,1.4,2.59,2.73
4:10:42,-0.99,0.1,-0.18,1.75,2.52,2.66
4:10:42,-0.99,0.09,-0.19,2.45,2.59,2.38
4:10:42,-0.99,0.09,-0.18,2.8,2.73,2.17
4:10:42,-0.99,0.08,-0.19,2.38,2.38,2.31
4:10:42,-0.98,0.09,-0.19,2.52,1.96,2.73
4:10:42,-0.98,0.09,-0.18,2.87,1.61,3.01
4:10:42,-0.98,0.1,-0.19,3.22,1.75,2.52
4:10:42,-0.98,0.09,-0.19,3.92,1.75,3.36
4:10:42,-0.99,0.1,-0.19,3.71,1.89,3.29
4:10:42,-0.98,0.1,-0.19,3.57,1.61,3.29
4:10:42,-0.98,0.09,-0.19,3.78,1.26,3.64
4:10:42,-0.98,0.1,-0.19,3.71,1.26,3.15
4:10:42,-0.99,0.1,-0.19,3.85,0.91,3.78
4:10:42,-0.99,0.1,-0.19,3.57,1.05,3.71
4:10:42,-0.99,0.1,-0.19,3.64,0.98,3.99
4:10:42,-0.98,0.1,-0.19,3.71,0.91,4.13
4:10:42,-0.98,0.1,-0.19,3.01,1.05,3.78
4:10:42,-0.98,0.1,-0.19,2.59,0.56,4.27
4:10:42,-0.98,0.1,-0.19,3.01,0.84,4.62
4:10:42,-0.98,0.11,-0.19,2.94,0.77,4.13
4:10:42,-0.98,0.11,-0.19,2.73,0.63,4.13
4:10:42,-0.98,0.11,-0.2,2.73,0.56,3.71
4:10:42,-0.99,0.1,-0.19,2.66,0.77,3.36
4:10:42,-0.98,0.1,-0.19,2.03,0.7,3.5
4:10:42,-0.98,0.1,-0.19,1.75,0.56,3.43
4:10:42,-0.98,0.1,-0.19,1.96,0.63,3.29
4:10:42,-0.98,0.11,-0.19,1.75,0.63,3.43
4:10:42,-0.98,0.11,-0.19,1.26,0.84,3.5
4:10:42,-0.98,0.11,-0.19,1.61,0.91,4.13
4:10:42,-0.98,0.12,-0.19,1.12,1.33,4.06
4:10:42,-0.98,0.12,-0.2,1.68,0.7,3.78
4:10:42,-0.98,0.11,-0.2,1.54,1.19,3.36
4:10:42,-0.98,0.1,-0.19,1.47,1.12,3.43
4:10:42,-0.98,0.1,-0.19,1.26,1.4,3.43
4:10:42,-0.98,0.1,-0.19,1.19,0.49,3.57
4:10:42,-0.98,0.1,-0.19,1.47,0.91,3.78
4:10:42,-0.99,0.11,-0.19,1.33,1.26,4.34
4:10:42,-0.98,0.11,-0.19,1.54,1.33,3.85
4:10:42,-0.98,0.1,-0.19,1.89,1.26,3.43
4:10:42,-0.98,0.11,-0.19,1.89,0.91,3.29
4:10:42,-0.99,0.11,-0.18,1.4,0.98,2.73
4:10:42,-0.99,0.1,-0.19,1.61,0.98,2.94
4:10:42,-0.98,0.11,-0.19,2.73,0.07,2.94
4:10:42,-0.98,0.11,-0.19,3.78,-0.35,2.94
4:10:42,-0.98,0.11,-0.19,4.2,-0.63,2.8
4:10:42,-0.98,0.12,-0.19,4.41,-0.77,2.73
4:10:42,-0.98,0.11,-0.19,4.69,-0.91,2.38
4:10:42,-0.98,0.11,-0.19,4.69,-0.7,2.31
4:10:42,-0.98,0.12,-0.19,4.13,0.07,2.31
4:10:42,-0.98,0.12,-0.19,3.43,0.56,2.45
4:10:42,-0.98,0.12,-0.19,2.45,0.84,3.64
4:10:42,-0.98,0.12,-0.19,1.96,0.91,3.64
4:10:42,-0.98,0.13,-0.19,2.31,0.63,3.99
4:10:42,-0.98,0.13,-0.19,3.01,0,4.2
4:10:42,-0.98,0.14,-0.19,3.78,-0.35,3.99
4:10:42,-0.98,0.13,-0.19,4.06,-0.63,3.78
4:10:42,-0.98,0.13,-0.19,3.22,-0.35,3.36
4:10:42,-0.98,0.12,-0.19,1.61,0.21,3.43
4:10:42,-0.98,0.12,-0.19,0.07,0.56,3.08
4:10:42,-0.98,0.12,-0.19,-0.56,0.56,2.87
4:10:42,-0.98,0.13,-0.19,-0.77,0.7,3.01
4:10:42,-0.98,0.12,-0.19,-0.42,0.49,3.29
4:10:42,-0.98,0.12,-0.19,-0.07,0.63,3.5
4:10:42,-0.98,0.12,-0.19,0,0.42,2.94
4:10:42,-0.98,0.12,-0.19,0.07,0.7,3.08
4:10:42,-0.98,0.11,-0.19,0.07,0.56,2.94
4:10:42,-0.98,0.11,-0.19,0,0.7,2.87
4:10:42,-0.98,0.1,-0.19,0.21,0.56,2.94
4:10:42,-0.98,0.1,-0.19,0.91,0.28,2.8
4:10:42,-0.98,0.1,-0.19,1.75,0.21,2.59
4:10:42,-0.98,0.1,-0.19,2.8,-0.7,2.59
4:10:42,-0.98,0.11,-0.19,3.92,-0.7,2.45
4:10:42,-0.98,0.11,-0.19,4.76,-1.33,2.59
4:10:42,-0.98,0.12,-0.19,4.97,-1.4,2.45
4:10:42,-0.97,0.12,-0.19,5.18,-1.75,2.52
4:10:42,-0.97,0.12,-0.19,5.04,-1.4,2.1
4:10:42,-0.97,0.12,-0.19,4.97,-0.84,2.45
4:10:42,-0.98,0.13,-0.19,4.41,-0.49,2.31
4:10:42,-0.98,0.13,-0.19,4.13,0,2.52
4:10:42,-0.98,0.13,-0.19,3.92,0.35,2.73
4:10:42,-0.98,0.12,-0.19,3.92,0.63,2.73
4:10:42,-0.98,0.13,-0.18,3.5,0.35,2.66
4:10:42,-0.98,0.13,-0.18,3.01,0.49,2.59
4:10:42,-0.98,0.13,-0.18,2.66,0.77,2.45
4:10:42,-0.98,0.13,-0.18,2.1,0.84,2.1
4:10:42,-0.98,0.13,-0.18,1.33,1.19,1.96
4:10:42,-0.98,0.13,-0.18,0.91,1.33,1.82
4:10:42,-0.98,0.13,-0.18,0.91,1.19,2.17
4:10:42,-0.98,0.13,-0.18,1.19,0.91,2.38
4:10:42,-0.98,0.13,-0.18,2.03,0.77,2.24
4:10:42,-0.98,0.13,-0.18,2.59,-0.07,2.17
4:10:42,-0.98,0.13,-0.18,2.87,-0.21,2.31
4:10:42,-0.98,0.13,-0.18,2.8,-0.42,2.45
4:10:42,-0.98,0.13,-0.18,2.59,-0.07,2.24
4:10:42,-0.98,0.13,-0.18,2.8,-0.07,2.73
4:10:42,-0.98,0.13,-0.18,2.73,0.14,2.45
4:10:42,-0.98,0.13,-0.18,2.73,0.21,2.31
4:10:42,-0.98,0.12,-0.18,2.87,0.07,2.8
4:10:42,-0.98,0.13,-0.19,3.22,0.14,2.73
4:10:42,-0.98,0.13,-0.19,3.5,-0.07,2.73
4:10:42,-0.98,0.13,-0.18,3.92,0.56,2.87
4:10:42,-0.98,0.13,-0.18,3.92,0.21,2.73
4:10:42,-0.97,0.12,-0.18,3.43,0.56,2.87
4:10:42,-0.98,0.12,-0.18,2.17,0.7,2.45
4:10:42,-0.98,0.12,-0.18,1.47,0.91,2.03
4:10:42,-0.98,0.12,-0.18,0.98,1.19,2.31
4:10:42,-0.98,0.12,-0.18,1.47,0.7,2.24
4:10:42,-0.98,0.13,-0.18,2.66,0.84,2.52
4:10:42,-0.98,0.13,-0.18,3.36,0.7,2.52
4:10:42,-0.98,0.13,-0.18,3.78,0.35,2.24
4:10:42,-0.98,0.12,-0.18,3.85,0.35,2.24
4:10:42,-0.98,0.12,-0.18,3.36,0.56,1.89
4:10:42,-0.98,0.12,-0.18,3.01,0.7,1.82
4:10:42,-0.98,0.12,-0.18,2.87,0.63,1.68
4:10:42,-0.98,0.12,-0.18,2.73,0.91,2.03
4:10:42,-0.98,0.13,-0.18,2.52,0.56,1.96
4:10:42,-0.98,0.12,-0.18,3.01,0.21,1.89
4:10:42,-0.98,0.12,-0.18,3.43,0.35,2.52
4:10:42,-0.98,0.12,-0.18,3.57,0.28,2.31
4:10:42,-0.98,0.13,-0.18,3.36,0.42,2.38
4:10:42,-0.98,0.13,-0.18,2.87,0.7,2.59
4:10:42,-0.98,0.13,-0.18,2.45,0.7,2.38
4:10:42,-0.98,0.13,-0.18,2.59,0.7,2.24
4:10:42,-0.98,0.13,-0.18,2.52,0.84,2.52
4:10:42,-0.98,0.13,-0.18,2.52,0.56,2.17
4:10:42,-0.98,0.13,-0.18,2.66,0.14,1.96
4:10:42,-0.98,0.13,-0.18,3.15,0.56,2.1
4:10:42,-0.98,0.13,-0.18,2.45,1.05,1.82
4:10:42,-0.98,0.13,-0.18,2.1,0.63,2.31
4:10:42,-0.97,0.13,-0.18,1.82,1.05,1.61
4:10:42,-0.97,0.13,-0.19,1.96,0.98,1.82
4:10:42,-0.97,0.13,-0.18,2.1,1.12,1.82
4:10:42,-0.98,0.13,-0.18,1.96,1.26,1.54
4:10:42,-0.98,0.13,-0.19,1.68,1.12,1.54
4:10:42,-0.98,0.13,-0.18,1.12,1.26,1.82
4:10:42,-0.98,0.13,-0.18,1.4,1.12,2.1
4:10:42,-0.98,0.13,-0.19,1.82,0.63,1.89
4:10:42,-0.98,0.13,-0.18,1.82,0.7,1.89
4:10:42,-0.98,0.13,-0.18,2.03,0.49,1.96
4:10:42,-0.99,0.12,-0.18,2.1,0.77,1.89
4:10:42,-0.99,0.12,-0.18,2.31,0.42,2.17
4:10:42,-0.98,0.12,-0.18,2.31,0.14,1.89
4:10:42,-0.98,0.13,-0.18,2.38,0.7,2.24
4:10:42,-0.98,0.13,-0.19,2.66,0.42,2.52
4:10:42,-0.98,0.14,-0.18,2.52,0.49,2.1
4:10:42,-0.98,0.13,-0.19,2.45,0.28,1.96
4:10:42,-0.98,0.13,-0.18,1.89,1.12,1.82
4:10:42,-0.98,0.12,-0.19,1.54,1.12,1.61
4:10:42,-0.98,0.12,-0.18,1.75,0.98,1.68
4:10:42,-0.98,0.13,-0.19,2.59,0.56,1.75
4:10:42,-0.98,0.13,-0.19,3.08,0.21,1.96
4:10:42,-0.98,0.13,-0.19,3.29,0.28,2.31
4:10:42,-0.97,0.13,-0.19,3.5,0.49,2.31
4:10:42,-0.98,0.13,-0.19,3.71,0.63,2.03
4:10:42,-0.98,0.13,-0.19,3.36,0.63,2.17
4:10:42,-0.98,0.13,-0.19,2.73,0.7,1.54
4:10:42,-0.98,0.13,-0.19,2.52,0.91,1.61
4:10:42,-0.98,0.13,-0.19,2.52,0.63,1.61
4:10:42,-0.98,0.13,-0.19,2.66,0.63,1.54
4:10:42,-0.98,0.13,-0.19,3.08,0.28,1.68
4:10:42,-0.98,0.13,-0.19,3.29,0.28,1.68
4:10:42,-0.98,0.13,-0.19,3.71,0.49,1.33
4:10:42,-0.98,0.13,-0.19,3.5,0.35,1.54
4:10:42,-0.98,0.13,-0.19,3.15,0.63,1.33
4:10:42,-0.98,0.13,-0.18,2.59,1.75,0.7
4:10:42,-0.98,0.13,-0.19,2.03,1.19,1.75
4:10:42,-0.98,0.14,-0.19,2.24,0.35,1.82
4:10:42,-0.98,0.13,-0.19,2.8,-0.07,1.4
4:10:42,-0.98,0.13,-0.19,3.15,0,1.96
4:10:42,-0.98,0.14,-0.19,3.08,0,1.82
4:10:42,-0.98,0.14,-0.19,2.94,-0.28,2.1
4:10:42,-0.98,0.14,-0.18,2.52,0.07,2.03
4:10:42,-0.98,0.13,-0.19,2.1,0.21,1.82
4:10:42,-0.98,0.14,-0.18,1.75,0.63,1.89
4:10:42,-0.98,0.14,-0.18,1.61,1.05,1.54
4:10:42,-0.98,0.14,-0.18,1.19,0.7,1.82
4:10:42,-0.98,0.14,-0.18,1.33,0.91,1.75
4:10:42,-0.98,0.13,-0.19,2.03,-0.21,2.03
4:10:42,-0.97,0.14,-0.19,3.08,-0.49,2.1
4:10:42,-0.97,0.14,-0.19,3.85,-0.91,2.52
4:10:42,-0.98,0.14,-0.19,3.71,-0.49,2.45
4:10:42,-0.98,0.13,-0.19,3.22,-0.14,2.59
4:10:42,-0.97,0.13,-0.19,2.17,0.35,2.24
4:10:42,-0.98,0.13,-0.19,1.05,0.91,1.4
4:10:42,-0.98,0.13,-0.18,0.56,0.91,1.96
4:10:42,-0.98,0.13,-0.18,0.56,0.84,1.82
4:10:42,-0.98,0.13,-0.18,0.98,1.12,2.1
4:10:42,-0.98,0.13,-0.18,1.61,0.98,1.61
4:10:42,-0.98,0.13,-0.18,1.89,0.98,1.26
4:10:42,-0.98,0.13,-0.18,1.68,0.91,1.19
4:10:42,-0.98,0.13,-0.18,1.19,1.26,0.91
4:10:42,-0.98,0.13,-0.19,1.05,1.54,1.05
4:10:42,-0.98,0.13,-0.19,0.84,0.42,1.61
4:10:42,-0.98,0.13,-0.19,1.68,0.56,1.68
4:10:42,-0.98,0.13,-0.18,2.38,0.28,1.54
4:10:42,-0.98,0.13,-0.19,2.66,0.35,1.61
4:10:42,-0.98,0.13,-0.19,2.52,0.35,1.61
4:10:42,-0.98,0.12,-0.18,2.1,0.77,1.61
4:10:42,-0.98,0.12,-0.18,1.75,0.56,1.54
4:10:42,-0.98,0.13,-0.18,1.89,0.35,1.68
4:10:42,-0.98,0.13,-0.18,1.96,0.77,1.54
4:10:42,-0.98,0.13,-0.18,1.68,1.12,1.47
4:10:42,-0.98,0.13,-0.18,2.1,0.63,1.75
4:10:42,-0.98,0.13,-0.18,2.45,0.77,1.33
4:10:42,-0.97,0.14,-0.19,2.66,0.56,1.82
4:10:42,-0.98,0.14,-0.19,3.29,0.77,1.82
4:10:42,-0.98,0.13,-0.18,3.29,1.05,1.61
4:10:42,-0.98,0.13,-0.19,2.73,1.4,2.1
4:10:42,-0.98,0.13,-0.19,2.45,1.54,1.47
4:10:42,-0.98,0.13,-0.18,2.38,2.03,1.61
4:10:42,-0.98,0.14,-0.19,2.45,1.68,2.17
4:10:42,-0.98,0.14,-0.18,2.38,1.19,1.96
4:10:42,-0.98,0.14,-0.18,2.59,1.33,1.61
4:10:42,-0.98,0.14,-0.18,2.52,1.47,2.03
4:10:42,-0.98,0.14,-0.19,2.66,1.54,1.82
4:10:42,-0.98,0.14,-0.19,2.59,1.47,1.82
4:10:42,-0.98,0.14,-0.19,2.8,1.12,1.96
4:10:42,-0.98,0.14,-0.19,3.15,1.12,1.82
4:10:42,-0.98,0.14,-0.19,3.36,1.61,1.75
4:10:42,-0.98,0.13,-0.19,3.08,1.82,1.82
4:10:42,-0.98,0.13,-0.18,2.87,2.17,2.24
4:10:42,-0.97,0.14,-0.19,2.73,2.52,1.75
4:10:42,-0.97,0.14,-0.19,2.66,2.1,1.75
4:10:42,-0.97,0.14,-0.19,2.38,1.68,1.75
4:10:42,-0.98,0.14,-0.19,2.59,1.82,1.4
4:10:42,-0.98,0.13,-0.19,2.8,1.61,1.68
4:10:42,-0.98,0.13,-0.19,2.66,1.89,1.89
4:10:42,-0.98,0.13,-0.19,2.73,2.1,1.26
4:10:42,-0.98,0.12,-0.19,2.66,1.75,1.54
4:10:42,-0.98,0.12,-0.19,2.94,1.75,1.33
4:10:42,-0.98,0.12,-0.19,3.71,1.05,1.89
4:10:42,-0.98,0.12,-0.19,4.2,0.49,1.68
4:10:42,-0.98,0.12,-0.19,4.76,-0.42,1.82
4:10:42,-0.97,0.12,-0.19,5.39,-0.35,1.19
4:10:42,-0.97,0.13,-0.19,5.04,-0.14,1.61
4:10:42,-0.97,0.14,-0.2,4.55,-0.84,1.4
4:10:42,-0.97,0.14,-0.2,3.99,-0.42,1.26
4:10:42,-0.97,0.14,-0.2,3.29,-0.07,1.4
4:10:42,-0.97,0.14,-0.2,2.94,0.42,1.4
4:10:42,-0.97,0.14,-0.2,2.52,0.98,2.03
4:10:42,-0.97,0.15,-0.2,2.31,0.91,1.54
4:10:42,-0.97,0.14,-0.2,2.8,0.84,1.68
4:10:42,-0.97,0.14,-0.2,3.01,0.7,1.61
4:10:42,-0.97,0.14,-0.2,3.15,1.05,1.12
4:10:42,-0.98,0.14,-0.19,2.45,1.12,1.33
4:10:42,-0.98,0.14,-0.19,1.54,1.61,1.19
4:10:42,-0.98,0.14,-0.2,1.12,1.26,1.26
4:10:42,-0.98,0.14,-0.19,0.84,1.54,1.26
4:10:42,-0.98,0.14,-0.19,0.91,1.26,1.33
4:10:42,-0.98,0.14,-0.19,0.63,1.12,1.47
4:10:42,-0.98,0.15,-0.19,0.84,0.84,1.47
4:10:42,-0.98,0.15,-0.19,0.84,0.28,1.19
4:10:42,-0.98,0.15,-0.19,-0.28,0.84,1.19
4:10:42,-0.99,0.14,-0.19,-1.4,0.98,0.98
4:10:42,-0.98,0.14,-0.19,-1.89,0.28,1.54
4:10:42,-0.97,0.14,-0.19,-1.05,-0.35,1.82
4:10:42,-0.97,0.15,-0.19,-0.14,-0.56,2.31
4:10:42,-0.98,0.14,-0.19,0.56,-0.7,1.89
4:10:42,-0.98,0.14,-0.19,0.63,-0.63,1.96
4:10:42,-0.98,0.13,-0.19,0.42,-0.28,1.96
4:10:42,-0.98,0.13,-0.19,0,0.14,1.75
4:10:42,-0.97,0.13,-0.19,-1.26,0.56,1.61
4:10:42,-0.97,0.13,-0.19,-1.54,1.05,1.26
4:10:42,-0.97,0.13,-0.19,-0.84,1.96,0.91
4:10:42,-0.98,0.14,-0.19,-0.84,1.96,1.12
4:10:42,-0.98,0.14,-0.19,-1.26,2.17,0.77
4:10:42,-0.97,0.14,-0.19,-1.05,1.68,0.98
4:10:42,-0.98,0.13,-0.19,-0.56,1.82,0.91
4:10:42,-0.97,0.14,-0.19,-0.56,1.75,0.98
4:10:42,-0.98,0.14,-0.19,-0.77,1.54,0.98
4:10:42,-0.98,0.14,-0.19,-0.98,1.26,1.05
4:10:42,-0.97,0.14,-0.19,-1.05,1.61,0.56
4:10:42,-0.97,0.14,-0.18,-1.12,1.75,0.84
4:10:42,-0.98,0.14,-0.19,-1.26,1.75,0.77
4:10:42,-0.98,0.14,-0.18,-1.26,1.47,0.42
4:10:42,-0.98,0.14,-0.19,-1.26,1.47,0.49
4:10:42,-0.98,0.13,-0.19,-1.26,1.26,0.35
4:10:42,-0.98,0.14,-0.19,-1.54,1.26,0.42
4:10:42,-0.98,0.14,-0.19,-2.03,1.19,-0.21
4:10:42,-0.98,0.14,-0.19,-2.38,1.12,0.42
4:10:42,-0.97,0.14,-0.19,-2.66,1.4,0.21
4:10:42,-0.97,0.14,-0.19,-2.87,1.05,0.21
4:10:42,-0.97,0.14,-0.19,-2.8,0.7,-0.07
4:10:42,-0.97,0.14,-0.18,-2.8,1.68,0.42
4:10:42,-0.97,0.14,-0.19,-2.52,1.96,0.56
4:10:42,-0.97,0.14,-0.19,-1.89,1.4,0.63
4:10:42,-0.97,0.14,-0.19,-1.12,1.68,0.7
4:10:42,-0.97,0.14,-0.19,-1.05,1.68,0.91
4:10:42,-0.97,0.14,-0.19,-1.4,1.89,0.49
4:10:42,-0.97,0.13,-0.19,-1.61,2.17,0.56
4:10:42,-0.97,0.13,-0.19,-2.1,2.31,0.77
4:10:42,-0.98,0.13,-0.19,-2.8,2.45,0.42
4:10:42,-0.98,0.13,-0.19,-2.73,2.38,0.63
4:10:42,-0.98,0.13,-0.19,-2.24,1.96,0.77
4:10:42,-0.98,0.13,-0.19,-1.68,1.12,0.49
4:10:42,-0.98,0.13,-0.19,-1.75,1.05,0.14
4:10:42,-0.98,0.13,-0.19,-1.4,0.63,0.91
4:10:42,-0.98,0.13,-0.2,-1.19,0.91,0.91
4:10:42,-0.98,0.13,-0.2,-0.98,0.63,0.98
4:10:42,-0.98,0.13,-0.19,-0.84,1.26,1.05
4:10:42,-0.98,0.13,-0.19,-0.7,0.91,0.98
4:10:42,-0.98,0.12,-0.19,-0.98,1.19,1.05
4:10:42,-0.97,0.13,-0.19,-0.98,0.91,0.91
4:10:42,-0.98,0.12,-0.19,-0.91,0.91,0.77
4:10:42,-0.98,0.13,-0.19,-0.7,0.91,0.49
4:10:42,-0.98,0.13,-0.19,-0.56,0.98,0.42
4:10:42,-0.97,0.14,-0.19,-0.56,0.91,0.21
4:10:42,-0.97,0.14,-0.19,-0.77,0.98,0.35
4:10:42,-0.98,0.14,-0.19,-1.19,0.91,0
4:10:42,-0.98,0.14,-0.19,-1.47,1.33,-0.21
4:10:42,-0.97,0.14,-0.19,-1.33,1.54,-0.21
4:10:42,-0.98,0.14,-0.19,-0.49,1.19,0.14
4:10:42,-0.97,0.14,-0.19,0.28,1.05,0.42
4:10:42,-0.98,0.14,-0.19,0.63,0.84,0.63
4:10:42,-0.98,0.14,-0.19,0.98,0.56,0.84
4:10:42,-0.98,0.14,-0.19,1.05,0.7,1.19
4:10:42,-0.98,0.14,-0.19,0.63,0.49,1.19
4:10:42,-0.98,0.13,-0.19,0.42,0.56,1.68
4:10:42,-0.98,0.13,-0.19,-0.07,0.84,1.33
4:10:42,-0.98,0.13,-0.19,-0.63,1.12,1.12
4:10:42,-0.98,0.13,-0.19,-0.91,1.82,1.26
4:10:42,-0.98,0.13,-0.19,-0.77,1.4,1.05
4:10:42,-0.98,0.14,-0.19,-0.84,1.47,1.4
4:10:42,-0.98,0.14,-0.19,-0.84,1.12,1.54
4:10:42,-0.97,0.14,-0.19,-0.56,0.98,1.05
4:10:42,-0.98,0.14,-0.19,-0.21,0.77,1.26
4:10:42,-0.98,0.13,-0.19,-0.14,0.56,1.12
4:10:42,-0.97,0.13,-0.19,0.14,0.49,0.91
4:10:42,-0.97,0.13,-0.19,0,0.21,0.91
4:10:42,-0.98,0.13,-0.19,0,0.56,0.49
4:10:42,-0.97,0.14,-0.19,0.07,0.63,0.42
4:10:42,-0.97,0.13,-0.19,0.42,0.7,0.42
4:10:42,-0.97,0.13,-0.19,0.49,0.49,0.35
4:10:42,-0.97,0.13,-0.19,0.28,0.42,0.56
4:10:42,-0.98,0.12,-0.19,-0.28,0.56,0.21
4:10:42,-0.98,0.13,-0.19,-0.63,0.77,0.21
4:10:42,-0.98,0.13,-0.19,-0.56,0.91,0.42
4:10:42,-0.98,0.14,-0.19,-0.28,1.05,0.56
4:10:42,-0.98,0.14,-0.19,0.07,0.91,0.98
4:10:42,-0.98,0.14,-0.19,0.28,1.12,1.33
4:10:42,-0.98,0.13,-0.19,0.49,0.49,1.82
4:10:42,-0.98,0.13,-0.19,0.28,0.07,1.82
4:10:42,-0.98,0.13,-0.19,0.14,-0.07,1.89
4:10:42,-0.98,0.13,-0.19,-0.14,0.28,1.82
4:10:42,-0.99,0.13,-0.19,-0.56,-0.21,1.54
4:10:42,-0.99,0.12,-0.19,-0.91,0.21,1.89
4:10:42,-0.98,0.12,-0.19,-0.84,-0.07,2.31
4:10:42,-0.98,0.13,-0.19,-0.56,-0.21,2.52
4:10:42,-0.97,0.14,-0.19,0.14,-0.56,2.45
4:10:42,-0.97,0.14,-0.19,0.21,-0.42,2.24
4:10:42,-0.97,0.14,-0.2,-0.28,-0.42,1.89
4:10:42,-0.96,0.14,-0.2,-0.84,0.14,1.96
4:10:42,-0.97,0.14,-0.2,-1.4,0.42,1.26
4:10:42,-0.97,0.14,-0.2,-1.82,0.84,0.84
4:10:42,-0.97,0.14,-0.19,-2.59,1.26,0.42
4:10:42,-0.98,0.14,-0.19,-3.08,1.4,1.05
4:10:42,-0.97,0.14,-0.19,-3.08,0.91,0.49
4:10:42,-0.97,0.14,-0.19,-2.59,0.21,0.21
4:10:42,-0.97,0.14,-0.19,-1.82,0.28,0.07
4:10:42,-0.97,0.14,-0.19,-1.47,0.63,0.14
4:10:42,-0.97,0.14,-0.19,-2.03,0.7,-0.21
4:10:42,-0.98,0.14,-0.19,-2.45,1.4,-0.14
4:10:42,-0.98,0.14,-0.19,-2.52,1.47,0.21
4:10:42,-0.98,0.14,-0.19,-2.24,1.05,0.14
4:10:42,-0.97,0.14,-0.18,-1.54,0.91,-0.07
4:10:42,-0.98,0.13,-0.18,-1.47,0.91,-0.14
4:10:42,-0.98,0.14,-0.19,-1.96,0.77,0.35
4:10:42,-0.98,0.14,-0.18,-2.59,0.77,0
4:10:42,-0.98,0.14,-0.19,-3.15,1.12,0.07
4:10:42,-0.97,0.14,-0.19,-3.36,2.03,0.49
4:10:42,-0.98,0.14,-0.19,-3.5,1.75,0.14
4:10:42,-0.98,0.13,-0.19,-3.5,1.96,0.49
4:10:42,-0.98,0.13,-0.19,-2.66,1.89,0.56
4:10:58,-0.97,0.14,-0.2,0.84,-0.28,1.26
4:10:58,-0.97,0.14,-0.2,0.84,-0.14,1.54
4:10:58,-0.97,0.13,-0.2,0.98,0.35,1.33
4:10:58,-0.97,0.13,-0.2,1.19,0.42,1.05
4:10:58,-0.97,0.13,-0.2,0.7,0.7,0.91
4:10:58,-0.98,0.14,-0.2,0.14,0.91,1.05
4:10:58,-0.98,0.14,-0.19,0.21,1.26,0.91
4:10:58,-0.97,0.14,-0.19,0.7,1.05,1.19
4:10:58,-0.97,0.15,-0.19,1.26,0.56,0.91
4:10:58,-0.98,0.15,-0.19,1.75,0.28,1.19
4:10:58,-0.98,0.15,-0.19,1.47,0.42,0.91
4:10:58,-0.98,0.15,-0.19,1.4,0.21,0.84
4:10:58,-0.97,0.15,-0.19,1.4,0.42,1.05
4:10:58,-0.97,0.15,-0.19,1.47,0.42,1.05
4:10:58,-0.97,0.15,-0.19,1.75,0.35,1.05
4:10:58,-0.97,0.15,-0.19,1.89,0.07,1.12
4:10:58,-0.98,0.15,-0.19,2.03,0.42,1.26
4:10:58,-0.98,0.15,-0.19,1.96,0.28,1.26
4:10:58,-0.97,0.15,-0.19,1.96,0.07,1.12
4:10:58,-0.97,0.15,-0.19,1.68,0.21,1.12
4:10:58,-0.97,0.15,-0.19,1.33,0.28,0.77
4:10:58,-0.97,0.15,-0.19,1.05,0.49,1.05
4:10:58,-0.97,0.15,-0.19,0.91,0.7,0.7
4:10:58,-0.97,0.15,-0.19,1.05,0.84,0.84
4:10:58,-0.97,0.15,-0.19,1.26,0.77,1.12
4:10:58,-0.98,0.15,-0.19,1.26,0.91,0.98
4:10:58,-0.97,0.15,-0.19,1.05,1.54,1.4
4:10:58,-0.97,0.16,-0.19,1.33,1.26,1.33
4:10:58,-0.97,0.15,-0.19,1.33,1.12,1.12
4:10:58,-0.97,0.15,-0.19,1.4,1.19,1.26
4:10:58,-0.98,0.14,-0.19,1.4,1.47,0.91
4:10:58,-0.98,0.14,-0.19,1.19,1.4,1.05
4:10:58,-0.97,0.15,-0.19,0.77,1.12,0.91
4:10:58,-0.97,0.16,-0.19,0.42,1.4,0.91
4:10:58,-0.97,0.16,-0.19,0,0.98,0.21
4:10:58,-0.97,0.16,-0.19,-0.07,1.12,0.42
4:10:58,-0.97,0.16,-0.19,0.21,1.54,0.63
4:10:58,-0.97,0.16,-0.19,0.35,1.47,0.42
4:10:58,-0.98,0.16,-0.19,0.28,1.33,0.56
4:10:58,-0.98,0.16,-0.19,0.07,1.26,0.35
4:10:58,-0.98,0.16,-0.19,-0.21,1.05,0.77
4:10:58,-0.98,0.15,-0.19,-0.35,0.7,0.91
4:10:58,-0.98,0.15,-0.19,-0.21,0.28,1.05
4:10:58,-0.98,0.15,-0.19,-0.28,0.14,1.12
4:10:58,-0.98,0.15,-0.19,-0.77,1.47,1.19
4:10:58,-0.97,0.15,-0.19,-1.12,1.89,0.91
4:10:58,-0.98,0.15,-0.19,-1.82,1.75,0.63
4:10:58,-0.97,0.15,-0.19,-1.96,1.75,0.91
4:10:58,-0.97,0.16,-0.19,-2.1,2.03,1.12
4:10:58,-0.97,0.16,-0.19,-2.24,2.24,1.4
4:10:58,-0.97,0.17,-0.2,-2.59,2.31,1.75
4:10:58,-0.98,0.17,-0.2,-2.66,2.31,1.33
4:10:58,-0.97,0.16,-0.2,-2.94,2.03,1.47
4:10:58,-0.97,0.16,-0.2,-2.87,1.47,1.75
4:10:58,-0.97,0.15,-0.2,-3.92,1.26,0.91
4:10:58,-0.97,0.14,-0.2,-4.9,1.05,1.75
4:10:58,-0.98,0.14,-0.19,-5.81,1.82,0.91
4:10:58,-0.98,0.13,-0.19,-6.79,2.17,0.63
4:10:58,-0.98,0.12,-0.19,-7.49,2.45,0.77
4:10:58,-0.98,0.12,-0.19,-6.23,1.61,0.63
4:10:58,-0.98,0.12,-0.19,-5.46,0.35,0.49
4:10:58,-0.98,0.12,-0.18,-4.83,0.63,0.14
4:10:58,-0.97,0.12,-0.18,-3.57,0.84,0.49
4:10:58,-0.97,0.11,-0.19,-2.03,0.56,0.42
4:10:58,-0.98,0.11,-0.19,0.14,0.28,0.77
4:10:58,-0.98,0.11,-0.19,2.31,0.77,1.4
4:10:58,-0.98,0.12,-0.19,3.43,0.91,1.61
4:10:58,-0.98,0.13,-0.19,4.13,0.42,1.33
4:10:58,-0.97,0.13,-0.19,5.46,0.21,1.19
4:10:58,-0.97,0.12,-0.19,6.23,0,1.75
4:10:58,-0.97,0.12,-0.19,7,0,1.68
4:10:58,-0.98,0.13,-0.19,7.35,-0.21,1.96
4:10:58,-0.98,0.13,-0.19,7.7,-0.56,1.75
4:10:58,-0.98,0.13,-0.19,7.77,-1.05,1.47
4:10:58,-0.98,0.14,-0.19,7.14,-0.77,1.54
4:10:58,-0.98,0.15,-0.19,6.09,-0.84,1.05
4:10:58,-0.98,0.15,-0.19,5.18,-1.05,0.84
4:10:58,-0.97,0.16,-0.19,4.62,-0.84,1.26
4:10:58,-0.97,0.17,-0.2,4.48,-0.7,1.19
4:10:58,-0.97,0.17,-0.2,4.62,-1.05,2.03
4:10:58,-0.97,0.18,-0.2,4.97,-0.7,1.75
4:10:58,-0.97,0.17,-0.2,4.69,0.28,2.31
4:10:58,-0.97,0.17,-0.19,5.11,0.35,2.59
4:10:58,-0.97,0.16,-0.19,5.46,0.91,3.08
4:10:58,-0.98,0.16,-0.18,4.9,1.33,2.87
4:10:58,-0.98,0.15,-0.18,3.92,1.19,2.73
4:10:58,-0.98,0.15,-0.18,3.71,0.84,2.66
4:10:58,-0.98,0.15,-0.18,3.78,0.84,1.96
4:10:58,-0.98,0.15,-0.18,3.85,0.28,1.89
4:10:58,-0.97,0.14,-0.18,3.92,0.28,2.1
4:10:58,-0.97,0.15,-0.19,4.2,0.21,1.89
4:10:58,-0.97,0.15,-0.19,4.2,17.78,1.54
4:10:58,-0.97,0.16,-0.19,3.78,0.28,1.54
4:10:58,-0.96,0.16,-0.2,3.71,0.77,1.68
4:10:58,-0.97,0.17,-0.2,3.85,0.35,1.05
4:10:58,-0.97,0.17,-0.19,3.85,0.63,1.19
4:10:58,-0.97,0.17,-0.19,3.29,0.98,0.63
4:10:58,-0.97,0.17,-0.19,2.87,0.7,1.05
4:10:58,-0.97,0.17,-0.19,2.8,0.77,0.49
4:10:58,-0.97,0.17,-0.19,2.73,0.77,0.91
4:10:58,-0.97,0.17,-0.18,1.96,1.05,0.77
4:10:58,-0.97,0.17,-0.19,0.35,1.12,0.63
4:10:58,-0.98,0.18,-0.19,-1.05,1.33,0
4:10:58,-0.98,0.18,-0.19,-1.82,1.47,-0.28
4:10:58,-0.97,0.18,-0.19,-2.38,1.54,0.14
4:10:58,-0.97,0.17,-0.19,-3.29,2.52,0.21
4:10:58,-0.97,0.16,-0.2,-2.8,2.03,0.49
4:10:58,-0.97,0.15,-0.2,-1.75,1.82,0.56
4:10:58,-0.97,0.15,-0.19,-2.1,2.17,0.91
4:10:58,-0.97,0.15,-0.2,-2.8,2.17,0.98
4:10:58,-0.98,0.13,-0.2,-2.38,1.89,0.91
4:10:58,-0.97,0.13,-0.19,-2.1,2.1,0.98
4:10:58,-0.97,0.13,-0.19,-2.73,2.45,0.42
4:10:58,-0.98,0.13,-0.19,-3.01,2.59,0.63
4:10:58,-0.98,0.13,-0.19,-2.45,2.38,0.07
4:10:58,-0.98,0.14,-0.19,-1.26,2.17,0.49
4:10:58,-0.98,0.14,-0.19,0.21,1.4,0
4:10:58,-0.97,0.15,-0.19,0.91,1.19,0.42
4:10:58,-0.98,0.15,-0.2,1.54,0.98,0.42
4:10:58,-0.98,0.15,-0.2,1.47,0.98,0.14
4:10:58,-0.97,0.14,-0.19,1.47,1.12,0.07
4:10:58,-0.97,0.15,-0.2,1.05,1.12,-0.21
4:10:58,-0.97,0.16,-0.19,1.12,1.19,-0.07
4:10:58,-0.97,0.17,-0.19,0.91,1.33,-0.21
4:10:58,-0.97,0.17,-0.19,0.56,1.54,-0.28
4:10:58,-0.97,0.17,-0.2,0.28,1.4,-0.49
4:10:58,-0.97,0.17,-0.2,0.42,1.19,-0.91
4:10:58,-0.97,0.17,-0.2,-0.14,1.4,-1.19
4:10:58,-0.96,0.17,-0.2,-0.84,1.96,-1.05
4:10:58,-0.97,0.17,-0.2,-1.89,2.31,-1.61
4:10:58,-0.97,0.17,-0.2,-2.94,2.59,-1.75
4:10:58,-0.97,0.18,-0.2,-4.13,3.22,-1.82
4:10:58,-0.97,0.17,-0.2,-5.67,3.5,-2.24
4:10:58,-0.97,0.17,-0.2,-6.16,3.36,-2.73
4:10:58,-0.97,0.16,-0.2,-6.51,3.78,-2.66
4:10:58,-0.97,0.15,-0.2,-7.14,4.13,-2.66
4:10:58,-0.97,0.15,-0.2,-7.14,3.99,-2.24
4:10:58,-0.98,0.14,-0.2,-7.07,3.71,-2.45
4:10:58,-0.98,0.15,-0.2,-6.58,3.36,-2.24
4:10:58,-0.98,0.14,-0.2,-6.37,3.5,-2.03
4:10:58,-0.98,0.14,-0.2,-5.74,3.22,-1.26
4:10:58,-0.98,0.13,-0.2,-4.9,2.87,-1.05
4:10:58,-0.98,0.13,-0.2,-4.13,2.31,-0.98
4:10:58,-0.98,0.13,-0.2,-3.15,1.89,-0.56
4:10:58,-0.98,0.12,-0.2,-2.45,1.96,-0.98
4:10:58,-0.98,0.12,-0.2,-2.03,1.68,-0.49
4:10:58,-0.98,0.12,-0.2,-1.75,1.12,-1.05
4:10:58,-0.98,0.13,-0.2,-1.75,0.63,-0.63
4:10:58,-0.97,0.13,-0.2,-1.68,0.7,-0.77
4:10:58,-0.97,0.13,-0.2,-1.4,0.42,-0.77
4:10:58,-0.97,0.13,-0.2,-0.91,1.26,-1.33
4:10:58,-0.97,0.13,-0.21,-1.61,0.98,-0.77
4:10:58,-0.98,0.13,-0.21,-1.61,0.84,-0.56
4:10:58,-0.98,0.13,-0.21,-0.7,0.77,-1.26
4:10:58,-0.98,0.13,-0.21,-0.77,0.98,-0.91
4:10:58,-0.97,0.13,-0.2,-0.84,0.56,-0.77
4:10:58,-0.97,0.14,-0.21,-0.49,0.84,-0.98
4:10:58,-0.97,0.13,-0.2,-0.28,0.98,-0.98
4:10:58,-0.97,0.13,-0.21,-0.35,0.63,-1.19
4:10:58,-0.97,0.14,-0.2,-0.49,0.49,-1.19
4:10:58,-0.97,0.13,-0.2,-1.05,1.4,-0.98
4:10:58,-0.98,0.13,-0.2,-1.26,1.47,-0.91
4:10:58,-0.98,0.13,-0.2,-1.54,1.26,-1.19
4:10:58,-0.97,0.13,-0.2,-1.75,1.4,-0.84
4:10:58,-0.98,0.13,-0.2,-1.96,1.26,-0.91
4:10:58,-0.98,0.13,-0.2,-2.03,0.91,-0.98
4:10:58,-0.97,0.13,-0.2,-2.17,0.91,-1.33
4:10:58,-0.97,0.13,-0.2,-1.75,0.56,-0.56
4:10:58,-0.97,0.13,-0.2,-1.26,0.77,-0.56
4:10:58,-0.98,0.13,-0.21,-1.26,0.35,-0.28
4:10:58,-0.97,0.12,-0.2,-1.82,0.63,-0.42
4:10:58,-0.98,0.12,-0.2,-2.1,1.19,-0.7
4:10:58,-0.98,0.12,-0.2,-2.8,1.4,-0.7
4:10:58,-0.98,0.12,-0.2,-2.87,1.19,-0.63
4:10:58,-0.98,0.13,-0.2,-3.08,1.61,-0.63
4:10:58,-0.98,0.13,-0.2,-3.15,0.98,-0.42
4:10:58,-0.98,0.12,-0.2,-2.52,0.77,0.07
4:10:58,-0.98,0.13,-0.2,-2.45,0.77,-0.49
4:10:58,-0.98,0.12,-0.2,-2.24,0.84,-0.35
4:10:58,-0.98,0.12,-0.2,-2.38,1.33,0.21
4:10:58,-0.97,0.12,-0.2,-2.38,0.63,0.07
4:10:58,-0.97,0.12,-0.2,-1.96,0.91,0.07
4:10:58,-0.98,0.12,-0.2,-2.1,1.19,-0.35
4:10:58,-0.98,0.12,-0.2,-2.52,1.4,-0.07
4:10:58,-0.97,0.12,-0.2,-2.66,1.75,-0.63
4:10:58,-0.98,0.13,-0.2,-2.45,1.82,-0.7
4:10:58,-0.97,0.13,-0.2,-2.24,1.12,-0.63
4:10:58,-0.97,0.13,-0.2,-2.31,1.47,-0.98
4:10:58,-0.97,0.13,-0.2,-2.1,1.61,-0.84
4:10:58,-0.98,0.13,-0.2,-1.89,0.98,-0.84
4:10:58,-0.97,0.14,-0.2,-2.1,1.4,-0.98
4:10:58,-0.97,0.14,-0.2,-2.59,1.33,-0.77
4:10:58,-0.97,0.14,-0.2,-2.73,1.33,-1.19
4:10:58,-0.98,0.13,-0.2,-2.8,1.33,-0.63
4:10:58,-0.98,0.13,-0.2,-2.73,1.4,-0.42
4:10:58,-0.98,0.13,-0.2,-2.8,1.4,-0.35
4:10:58,-0.98,0.13,-0.19,-2.8,1.89,0.35
4:10:58,-0.98,0.13,-0.19,-2.73,1.61,0.49
4:10:58,-0.98,0.13,-0.19,-2.59,0.98,0.56
4:10:58,-0.98,0.13,-0.19,-2.38,1.33,1.05
4:10:58,-0.98,0.12,-0.19,-1.75,0.42,1.47
4:10:58,-0.98,0.12,-0.19,-1.12,0.56,1.54
4:10:58,-0.98,0.12,-0.2,-0.77,0.84,1.4
4:10:58,-0.98,0.12,-0.2,-0.63,0.63,1.47
4:10:58,-0.98,0.12,-0.2,-0.63,0.84,1.61
4:10:58,-0.98,0.12,-0.2,-0.35,0.56,1.68
4:10:58,-0.97,0.12,-0.2,0,0.35,1.96
4:10:58,-0.97,0.12,-0.2,0.42,0.63,1.54
4:10:58,-0.97,0.12,-0.2,1.12,0.35,1.96
4:10:58,-0.97,0.12,-0.2,1.75,0.21,2.03
4:10:58,-0.98,0.12,-0.2,1.82,0.42,1.82
4:10:58,-0.97,0.11,-0.2,1.61,0.21,1.96
4:10:58,-0.97,0.11,-0.2,1.68,0.21,2.1
4:10:58,-0.97,0.12,-0.2,1.75,-0.07,1.75
4:10:58,-0.97,0.12,-0.2,1.75,-0.21,1.47
4:10:58,-0.98,0.13,-0.2,1.61,0.28,1.12
4:10:58,-0.97,0.13,-0.2,1.47,0.56,0.98
4:10:58,-0.98,0.14,-0.2,1.4,0.84,1.19
4:10:58,-0.98,0.14,-0.2,1.26,0.7,0.84
4:10:58,-0.97,0.15,-0.2,0.98,0.7,0.35
4:10:58,-0.98,0.15,-0.2,-0.07,1.19,0.63
4:10:58,-0.98,0.15,-0.2,-0.77,1.19,0.91
4:10:58,-0.98,0.15,-0.19,-1.47,1.26,0.56
4:10:58,-0.98,0.15,-0.2,-2.03,1.12,0.98
4:10:58,-0.98,0.15,-0.2,-2.52,1.47,0.98
4:10:58,-0.98,0.14,-0.19,-2.94,1.54,1.19
4:10:58,-0.98,0.14,-0.19,-3.22,1.75,1.05
4:10:58,-0.98,0.13,-0.19,-2.87,1.4,1.33
4:10:58,-0.97,0.13,-0.19,-2.52,1.19,1.4
4:10:58,-0.97,0.13,-0.2,-2.31,0.91,1.19
4:10:58,-0.97,0.14,-0.2,-1.68,0.84,1.26
4:10:58,-0.97,0.13,-0.2,-1.4,1.19,1.68
4:10:58,-0.97,0.14,-0.21,-1.54,1.33,1.4
4:10:58,-0.97,0.14,-0.21,-1.47,1.68,1.75
4:10:58,-0.97,0.13,-0.2,-1.26,1.4,1.68
4:10:58,-0.97,0.13,-0.2,-1.33,1.61,1.12
4:10:58,-0.98,0.13,-0.2,-1.19,1.61,1.89
4:10:58,-0.98,0.13,-0.2,-1.12,1.05,1.82
4:10:58,-0.98,0.13,-0.2,-0.98,0.63,1.54
4:10:58,-0.98,0.13,-0.2,-0.7,0.42,1.89
4:10:58,-0.98,0.13,-0.2,-0.7,-0.14,1.89
4:10:58,-0.98,0.13,-0.2,-0.35,-0.07,1.82
4:10:58,-0.98,0.13,-0.2,0.21,-0.56,2.03
4:10:58,-0.98,0.13,-0.2,0.28,-0.35,2.66
4:10:58,-0.97,0.13,-0.2,0.42,-0.14,2.38
4:10:58,-0.97,0.13,-0.2,0.42,0.07,2.8
4:10:58,-0.97,0.14,-0.2,0.63,-0.28,2.38
4:10:58,-0.97,0.13,-0.2,0.63,-0.14,2.59
4:10:58,-0.97,0.13,-0.2,0.07,0.42,2.1
4:10:58,-0.98,0.13,-0.2,-0.14,0.56,2.24
4:10:58,-0.97,0.13,-0.2,0.28,0.14,2.24
4:10:58,-0.97,0.13,-0.2,0.77,0.42,1.68
4:10:58,-0.97,0.13,-0.2,1.33,0.14,1.75
4:10:58,-0.97,0.13,-0.2,1.33,0.7,1.61
4:10:58,-0.97,0.13,-0.2,1.54,0.91,1.54
4:10:58,-0.97,0.13,-0.2,1.54,0.84,1.54
4:10:58,-0.97,0.14,-0.19,1.68,0.77,1.61
4:10:58,-0.98,0.14,-0.19,2.1,0.98,1.12
4:10:58,-0.98,0.14,-0.19,2.52,0.63,1.61
4:10:58,-0.98,0.14,-0.19,3.01,0.7,1.4
4:10:58,-0.98,0.14,-0.19,3.29,0,1.89
4:10:58,-0.98,0.15,-0.19,3.57,-0.77,1.96
4:10:58,-0.98,0.15,-0.19,3.01,0.21,1.61
4:10:58,-0.97,0.15,-0.19,2.66,-0.14,1.75
4:10:58,-0.97,0.16,-0.19,1.82,0.49,1.89
4:10:58,-0.97,0.16,-0.19,1.26,0.7,2.38
4:10:58,-0.98,0.16,-0.19,0.77,0.98,1.96
4:10:58,-0.98,0.16,-0.19,0,0.84,1.82
4:10:58,-0.98,0.15,-0.19,-0.77,1.19,1.75
4:10:58,-0.98,0.15,-0.19,-1.26,1.19,1.68
4:10:58,-0.98,0.15,-0.19,-1.54,1.61,1.33
4:10:58,-0.98,0.15,-0.19,-1.4,1.61,1.75
4:10:58,-0.98,0.15,-0.19,-1.68,1.54,1.4
4:10:58,-0.98,0.15,-0.19,-2.03,1.75,1.4
4:10:58,-0.97,0.15,-0.19,-2.17,1.89,1.26
4:10:58,-0.97,0.14,-0.19,-1.82,2.03,1.05
4:10:58,-0.97,0.15,-0.19,-1.68,2.24,0.91
4:10:58,-0.97,0.15,-0.19,-1.47,2.31,1.05
4:10:58,-0.97,0.15,-0.19,-1.4,1.89,0.7
4:10:58,-0.98,0.15,-0.2,-1.61,2.03,0.35
4:10:58,-0.98,0.15,-0.2,-1.89,1.75,0.07
4:10:58,-0.97,0.14,-0.19,-2.1,1.54,0.28
4:10:58,-0.98,0.14,-0.19,-2.24,1.82,0.14
4:10:58,-0.98,0.15,-0.2,-2.38,1.82,0.07
4:10:58,-0.98,0.15,-0.2,-2.66,1.4,0.28
4:10:58,-0.97,0.14,-0.19,-2.94,1.61,0.35
4:10:58,-0.97,0.15,-0.19,-3.01,1.75,-0.07
4:10:58,-0.98,0.15,-0.19,-2.8,1.61,0.35
4:10:58,-0.97,0.14,-0.2,-2.66,1.54,0.42
4:10:58,-0.97,0.14,-0.2,-2.45,1.54,0.21
4:10:58,-0.97,0.14,-0.2,-2.31,1.47,0.49
4:10:58,-0.97,0.14,-0.2,-2.24,1.61,0.35
4:10:58,-0.97,0.14,-0.2,-2.38,2.1,0.42
4:10:58,-0.98,0.13,-0.2,-2.1,2.1,0.42
4:10:58,-0.98,0.13,-0.2,-1.54,1.96,0.84
4:10:58,-0.97,0.13,-0.2,-0.84,2.03,0.98
4:10:58,-0.98,0.13,-0.21,-0.14,1.96,0.77
4:10:58,-0.97,0.13,-0.21,0.42,1.47,1.33
4:10:58,-0.97,0.13,-0.2,0.98,1.12,1.26
4:10:58,-0.97,0.13,-0.2,1.61,0.91,1.05
4:10:58,-0.97,0.13,-0.2,1.68,1.05,1.33
4:10:58,-0.97,0.13,-0.2,1.68,1.26,1.05
4:10:58,-0.97,0.13,-0.2,1.26,1.61,1.33
4:10:58,-0.97,0.13,-0.2,1.12,1.33,0.77
4:10:58,-0.97,0.13,-0.2,0.7,1.61,0.91
4:10:58,-0.98,0.13,-0.2,0.63,1.61,0.77
4:10:58,-0.98,0.12,-0.2,0.91,1.75,0.91
4:10:58,-0.98,0.13,-0.2,1.05,1.4,0.98
4:10:58,-0.98,0.13,-0.19,1.19,1.19,0.77
4:10:58,-0.98,0.13,-0.19,1.26,1.26,0.7
4:10:58,-0.98,0.14,-0.19,1.75,1.05,1.05
4:10:58,-0.98,0.14,-0.19,2.1,0.91,1.12
4:10:58,-0.98,0.15,-0.2,2.24,0.7,1.61
4:10:58,-0.97,0.15,-0.2,2.73,0.28,1.54
4:10:58,-0.97,0.15,-0.2,3.29,-0.07,1.54
4:10:58,-0.97,0.15,-0.2,3.36,0.07,1.89
4:10:58,-0.98,0.15,-0.2,3.22,0.14,1.89
4:10:58,-0.98,0.14,-0.2,2.94,0.42,2.17
4:10:58,-0.98,0.14,-0.2,2.31,0.49,1.89
4:10:58,-0.98,0.14,-0.2,1.68,0.7,1.61
4:10:58,-0.98,0.14,-0.2,1.12,0.77,2.17
4:10:58,-0.97,0.14,-0.2,0.98,0.63,1.82
4:10:58,-0.98,0.14,-0.2,1.19,0.84,1.4
4:10:58,-0.97,0.14,-0.2,1.26,0.7,1.96
4:10:58,-0.97,0.14,-0.2,1.26,1.26,1.89
4:10:58,-0.97,0.14,-0.2,1.12,0.84,1.75
4:10:58,-0.97,0.14,-0.2,0.77,0.56,1.75
4:10:58,-0.98,0.14,-0.2,0.49,0.7,1.61
4:10:58,-0.97,0.14,-0.2,0.42,0.91,1.54
4:10:58,-0.97,0.14,-0.2,0.77,0.91,1.47
4:10:58,-0.97,0.14,-0.2,0.91,0.77,1.4
4:10:58,-0.97,0.13,-0.2,0.91,0.84,1.26
4:10:58,-0.97,0.13,-0.2,0.77,0.91,1.26
4:10:58,-0.98,0.13,-0.2,0.77,0.84,1.26
4:10:58,-0.98,0.13,-0.2,1.12,1.05,0.49
4:10:58,-0.98,0.13,-0.2,0.91,0.84,0.98
4:10:58,-0.97,0.13,-0.2,0.77,1.05,0.56
4:10:58,-0.97,0.14,-0.2,1.05,1.19,0.35
4:10:58,-0.98,0.14,-0.2,1.26,0.63,0.7
4:10:58,-0.97,0.14,-0.2,1.4,0.91,1.05
4:10:58,-0.98,0.14,-0.2,1.75,0.7,1.12
4:10:58,-0.98,0.14,-0.2,2.17,0.7,1.19
4:10:58,-0.98,0.14,-0.2,1.96,0.84,1.4
4:10:58,-0.97,0.14,-0.2,1.61,0.91,1.68
4:10:58,-0.98,0.14,-0.2,1.4,0.77,1.54
4:10:58,-0.97,0.14,-0.2,1.4,0.49,1.68
4:10:58,-0.97,0.14,-0.2,1.61,0.84,1.61
4:10:58,-0.97,0.15,-0.2,1.61,0.91,1.75
4:10:58,-0.97,0.14,-0.2,1.19,1.12,1.68
4:10:58,-0.98,0.14,-0.2,0.63,1.19,1.75
4:10:58,-0.97,0.14,-0.2,0.7,1.12,1.68
4:10:58,-0.97,0.14,-0.2,0.49,1.05,1.33
4:10:58,-0.98,0.14,-0.2,0.21,0.98,1.26
4:10:58,-0.98,0.14,-0.2,0.28,0.91,1.05
4:10:58,-0.97,0.14,-0.2,0.21,1.05,1.47
4:10:58,-0.98,0.14,-0.2,0.49,0.84,1.19
4:10:58,-0.97,0.14,-0.2,0.63,0.84,1.26
4:10:58,-0.97,0.14,-0.2,0.77,0.91,1.05
4:10:58,-0.97,0.14,-0.2,0.84,0.98,1.33
4:10:58,-0.98,0.14,-0.2,0.91,0.63,1.33
4:10:58,-0.97,0.14,-0.2,0.7,0.77,0.91
4:10:58,-0.97,0.14,-0.2,0.56,0.84,1.54
4:10:58,-0.97,0.15,-0.2,0.49,0.77,1.33
4:10:58,-0.97,0.15,-0.2,0.42,0.98,1.33
4:10:58,-0.98,0.14,-0.2,0.42,0.77,1.54
4:10:58,-0.98,0.14,-0.2,0.35,0.49,1.33
4:10:58,-0.98,0.14,-0.2,0.35,0.56,1.54
4:10:58,-0.98,0.14,-0.2,0.35,0.21,1.54
4:10:58,-0.98,0.14,-0.2,0.28,0.49,1.61
4:10:58,-0.98,0.14,-0.2,0.28,0.14,1.89
4:10:58,-0.97,0.14,-0.2,0.42,0.35,1.26
4:10:58,-0.97,0.14,-0.2,0.63,-0.14,1.89
4:10:58,-0.97,0.14,-0.2,0.63,0.14,1.54
4:10:58,-0.97,0.14,-0.21,0.14,0.28,1.47
4:10:58,-0.97,0.14,-0.21,-0.28,0.7,1.47
4:10:58,-0.97,0.14,-0.21,-0.98,1.19,1.19
4:10:58,-0.97,0.14,-0.21,-1.19,1.26,1.05
4:10:58,-0.97,0.14,-0.2,-1.26,1.26,0.84
4:10:58,-0.97,0.13,-0.2,-1.47,1.68,1.05
4:10:58,-0.97,0.14,-0.2,-1.4,1.33,0.84
4:10:58,-0.97,0.14,-0.2,-0.84,1.12,0.84
4:10:58,-0.97,0.14,-0.2,-0.42,0.98,0.7
4:10:58,-0.97,0.14,-0.2,-0.14,0.7,0.98
4:10:58,-0.97,0.14,-0.2,-0.35,0.63,0.49
4:10:58,-0.97,0.14,-0.2,-0.21,0.42,0.7
4:10:58,-0.97,0.14,-0.2,-0.14,1.05,0.84
4:10:58,-0.97,0.14,-0.2,-0.42,0.91,0.7
4:10:58,-0.98,0.14,-0.2,-0.42,0.77,0.42
4:10:58,-0.98,0.13,-0.2,-0.28,0.84,0.63
4:10:58,-0.98,0.13,-0.2,0.07,0.49,0.84
4:10:58,-0.98,0.13,-0.2,0.56,0.49,0.77
4:10:58,-0.98,0.13,-0.2,0.7,0.49,0.49
4:10:58,-0.97,0.13,-0.2,0.35,0.63,0.77
4:10:58,-0.97,0.14,-0.2,0.07,0.7,0.56
4:10:58,-0.97,0.15,-0.2,-0.07,0.98,0
4:10:58,-0.97,0.15,-0.2,-0.07,0.91,0.7
4:10:58,-0.97,0.14,-0.2,0.07,0.91,0.91
4:10:58,-0.97,0.14,-0.2,0.56,0.77,1.05
4:10:58,-0.97,0.14,-0.2,0.63,0.7,1.05
4:10:58,-0.97,0.14,-0.2,0.7,0.7,1.26
4:10:58,-0.97,0.14,-0.2,0.49,0.42,1.47
4:10:58,-0.97,0.14,-0.2,0.42,0.63,1.33
4:10:58,-0.97,0.14,-0.2,0.49,0.63,1.54
4:10:58,-0.97,0.14,-0.2,0.35,0.7,1.33
4:10:58,-0.98,0.14,-0.2,0.07,0.84,1.26
4:10:58,-0.98,0.13,-0.2,0,0.91,1.33
4:10:58,-0.97,0.13,-0.2,0.14,1.05,0.84
4:10:58,-0.97,0.13,-0.2,0,1.12,1.05
4:10:58,-0.98,0.14,-0.2,-0.07,1.26,0.98
4:10:58,-0.98,0.14,-0.2,-0.21,0.77,0.98
4:10:58,-0.98,0.14,-0.2,0.07,0.77,0.77
4:10:58,-0.98,0.14,-0.2,0.49,0.84,0.84
4:10:58,-0.98,0.14,-0.2,0.84,0.63,0.98
4:10:58,-0.98,0.14,-0.2,1.26,0.35,1.33
4:10:58,-0.98,0.13,-0.2,1.61,0.28,1.12
4:10:58,-0.97,0.13,-0.2,1.89,0,1.26
4:10:58,-0.97,0.13,-0.2,1.68,-0.07,1.26
4:10:58,-0.97,0.14,-0.2,1.61,0.35,1.26
4:10:58,-0.97,0.15,-0.2,1.47,0.63,0.84
4:10:58,-0.97,0.15,-0.2,1.19,1.05,0.98
4:10:58,-0.97,0.15,-0.2,1.12,1.26,1.12
4:10:58,-0.97,0.15,-0.2,0.98,0.84,0.56
4:10:58,-0.97,0.14,-0.2,1.12,0.56,0.98
4:10:58,-0.97,0.14,-0.2,1.19,0.63,0.7
4:10:58,-0.97,0.14,-0.2,1.12,0.49,0.91
4:10:58,-0.97,0.14,-0.2,0.7,0.91,0.84
4:10:58,-0.97,0.15,-0.2,0.14,0.98,0.56
4:10:58,-0.97,0.15,-0.2,-0.63,1.4,0.49
4:10:58,-0.97,0.15,-0.2,-0.84,1.68,0.56
4:10:58,-0.97,0.15,-0.2,-1.12,2.03,0.77
4:10:58,-0.97,0.16,-0.2,-0.98,1.75,0.77
4:10:58,-0.97,0.15,-0.2,-1.12,2.03,0.56
4:10:58,-0.97,0.15,-0.2,-1.26,2.03,0.84
4:10:58,-0.97,0.14,-0.2,-1.4,1.54,0.77
4:10:58,-0.97,0.14,-0.2,-1.33,1.82,0.7
4:10:58,-0.98,0.14,-0.2,-1.54,1.61,0.91
4:10:58,-0.97,0.14,-0.2,-2.17,1.82,0.56
4:10:58,-0.97,0.13,-0.2,-2.38,1.82,0.42
4:10:58,-0.98,0.13,-0.2,-2.66,1.75,0.07
4:10:58,-0.98,0,-0.2,-2.52,1.68,0.28
4:10:58,-0.97,0.13,-0.2,-2.17,2.1,0.28
4:10:58,-0.98,0.13,-0.2,-2.17,1.96,0.49
4:10:58,-0.98,0.13,-0.2,-1.75,2.66,0.56
4:10:58,-0.98,0.14,-0.2,-1.26,1.75,0.14
4:10:58,-0.98,0.14,-0.2,-0.63,1.68,0.56
4:10:58,-0.98,0.14,-0.2,-0.14,1.68,0.56
4:10:58,-0.97,0.13,-0.2,-0.14,1.47,1.05
4:10:58,-0.97,0.14,-0.2,0.21,0.77,0.7
4:10:58,-0.98,0.13,-0.2,0.49,0.7,0.84
4:10:58,-0.97,0.13,-0.2,0.42,0.56,0.98
4:10:58,-0.97,0.13,-0.2,0.14,0.91,0.84
4:10:58,-0.97,0.13,-0.21,0,1.12,0.77
4:10:58,-0.97,0.13,-0.21,0.14,1.19,0.63
4:10:58,-0.98,0.13,-0.2,0.14,1.33,0.91
4:10:58,-0.97,0.13,-0.2,0.07,1.26,0.56
4:10:58,-0.98,0.14,-0.2,0.07,1.4,0.7
4:10:58,-0.98,0.14,-0.2,0.07,1.47,0.84
4:10:58,-0.97,0.14,-0.2,0.35,0.91,1.12
4:10:58,-0.97,0.14,-0.2,0.63,0.98,0.98
4:10:58,-0.98,0.14,-0.2,0.7,0.56,1.12
4:10:58,-0.97,0.14,-0.2,0.56,0.63,1.12
4:10:58,-0.97,0.14,-0.2,0.49,0.98,1.05
4:10:58,-0.98,0.14,-0.21,0.28,0.77,1.19
4:10:58,-0.97,0.14,-0.21,0.28,0.91,1.05
4:10:58,-0.97,0.14,-0.2,0.21,1.12,1.68
4:10:58,-0.98,0.14,-0.2,0.42,0.91,1.26
4:10:58,-0.97,0.14,-0.2,0.42,0.98,1.26
4:10:58,-0.98,0.14,-0.2,0.56,1.26,1.61
4:10:58,-0.98,0.15,-0.2,0.49,1.12,1.26
4:10:58,-0.98,0.15,-0.2,0.42,0.49,1.54
4:10:58,-0.98,0.15,-0.2,0.56,0.63,1.68
4:10:58,-0.97,0.14,-0.2,0.7,0.49,1.75
4:10:58,-0.97,0.14,-0.2,0.42,0,1.68
4:10:58,-0.98,0.14,-0.2,0.14,0.14,1.82
4:10:58,-0.98,0.14,-0.2,-0.14,0.35,1.82
4:10:58,-0.98,0.14,-0.2,-0.07,0.49,1.68
4:10:58,-0.98,0.13,-0.2,-0.14,0.49,1.82
4:10:58,-0.97,0.13,-0.2,-0.07,0.42,2.17
4:10:58,-0.97,0.13,-0.2,0.28,0.42,2.03
4:10:58,-0.97,0.13,-0.2,0.35,0.42,1.61
4:10:58,-0.98,0.14,-0.2,0.35,0.49,2.03
4:10:58,-0.97,0.14,-0.2,0.28,0.49,2.31
4:10:58,-0.98,0.14,-0.2,0.77,0.77,2.31
4:10:58,-0.97,0.14,-0.2,0.91,0.28,2.31
4:10:58,-0.97,0.14,-0.2,0.91,0.14,2.31
4:10:58,-0.97,0.14,-0.2,0.98,0.21,2.31
4:10:58,-0.97,0.14,-0.2,1.12,-0.42,1.96
4:10:58,-0.97,0.14,-0.2,1.12,-0.21,2.24
4:10:58,-0.97,0.14,-0.2,1.26,-0.28,2.17
4:10:58,-0.97,0.14,-0.21,1.26,0.07,2.24
4:10:58,-0.97,0.14,-0.2,0.77,0,1.61
4:10:58,-0.97,0.14,-0.2,0,0.7,1.26
4:10:58,-0.97,0.14,-0.2,-0.56,0.63,1.33
4:10:58,-0.97,0.15,-0.2,-0.77,0.49,1.12
4:10:58,-0.97,0.15,-0.2,-0.84,1.05,0.91
4:10:58,-0.97,0.15,-0.2,-0.91,0.91,1.4
4:10:58,-0.97,0.15,-0.2,-1.05,1.05,1.47
4:10:58,-0.97,0.15,-0.2,-0.91,0.91,1.54
4:10:58,-0.97,0.15,-0.2,-1.12,0.91,1.54
4:10:58,-0.98,0.15,-0.2,-1.26,1.12,1.4
4:10:58,-0.98,0.14,-0.2,-1.47,0.84,1.26
4:10:58,-0.98,0.14,-0.19,-1.61,0.84,1.47
4:10:58,-0.98,0.15,-0.19,-1.82,1.05,1.05
4:10:58,-0.97,0.15,-0.2,-2.03,1.05,1.47
4:10:58,-0.97,0.15,-0.19,-2.59,1.68,1.05
4:10:58,-0.97,0.16,-0.2,-3.08,1.47,1.4
4:10:58,-0.97,0.16,-0.19,-3.29,1.75,1.4
4:10:58,-0.97,0.16,-0.2,-3.15,1.54,1.19
4:10:58,-0.97,0.15,-0.2,-3.01,1.19,1.75
4:10:58,-0.97,0.15,-0.2,-2.73,1.19,1.4
4:10:58,-0.98,0.15,-0.2,-2.31,0.84,1.61
4:10:58,-0.97,0.14,-0.2,-2.1,0.77,1.89
4:10:58,-0.98,0.15,-0.2,-2.17,0.84,1.47
4:10:58,-0.97,0.14,-0.19,-2.52,0.84,1.33
4:10:58,-0.97,0.14,-0.2,-2.87,0.98,1.47
4:10:58,-0.97,0.14,-0.2,-2.73,1.05,1.33
4:10:58,-0.97,0.14,-0.2,-2.17,1.12,0.98
4:10:58,-0.97,0.14,-0.2,-1.82,1.05,1.4
4:10:58,-0.97,0.14,-0.2,-1.61,1.12,1.33
4:10:58,-0.97,0.14,-0.2,-1.33,0.84,1.33
4:10:58,-0.97,0.13,-0.2,-1.33,0.98,1.19
4:10:58,-0.97,0.13,-0.2,-1.4,0.91,1.33
4:10:58,-0.98,0.13,-0.2,-1.4,0.84,0.7
4:10:58,-0.98,0.13,-0.2,-0.77,0.63,1.19
4:10:58,-0.98,0.13,-0.2,-0.42,0.77,1.26
4:10:58,-0.98,0.13,-0.2,-0.07,0.63,0.84
4:10:58,-0.98,0.13,-0.2,0.49,0.56,1.33
4:10:58,-0.97,0.13,-0.2,1.19,0.77,1.82
4:10:58,-0.97,0.12,-0.2,2.31,0.42,1.89
4:10:58,-0.97,0.13,-0.2,2.94,0.56,1.82
4:10:58,-0.98,0.13,-0.2,2.87,1.05,1.96
4:10:58,-0.98,0.14,-0.2,2.38,0.77,1.75
4:10:58,-0.98,0.15,-0.2,2.31,0.7,1.68
4:10:58,-0.98,0.15,-0.2,2.94,0.35,2.03
4:10:58,-0.97,0.15,-0.2,3.36,0.14,2.1
4:10:58,-0.98,0.15,-0.2,3.57,-0.07,2.38
4:10:58,-0.98,0.15,-0.19,3.71,-0.07,2.45
4:10:58,-0.97,0.15,-0.2,3.99,-0.07,3.15
4:10:58,-0.97,0.16,-0.2,4.41,-0.35,2.8
4:10:58,-0.97,0.16,-0.2,4.55,-0.28,3.22
4:10:58,-0.97,0.16,-0.2,4.48,-0.42,3.36
4:10:58,-0.97,0.17,-0.2,4.2,-0.42,3.29
4:10:58,-0.97,0.16,-0.2,3.64,0,3.22
4:10:58,-0.97,0.16,-0.2,2.66,0.35,3.01
4:10:58,-0.97,0.16,-0.2,2.03,0.35,2.38
4:10:58,-0.97,0.16,-0.19,1.61,0.56,2.59
4:10:58,-0.97,0.16,-0.19,1.19,0.49,2.17
4:10:58,-0.97,0.16,-0.2,1.05,0.49,1.89
4:10:58,-0.97,0.16,-0.2,0.56,0.07,1.68
4:10:58,-0.97,0.15,-0.2,0.07,0.56,1.82
4:10:58,-0.97,0.15,-0.2,-0.07,0.7,1.4
4:10:58,-0.97,0.15,-0.2,0.14,0.7,1.75
4:10:58,-0.96,0.15,-0.2,0.21,0.91,1.47
4:10:58,-0.97,0.16,-0.2,0.07,0.7,1.54
4:10:58,-0.97,0.16,-0.2,0,1.54,1.26
4:10:58,-0.97,0.16,-0.2,0.35,1.26,1.4
4:10:58,-0.97,0.16,-0.2,0.7,0.63,1.61
4:10:58,-0.97,0.16,-0.2,0.84,0.42,1.12
4:10:58,-0.97,0.16,-0.2,0.77,0.77,1.19
4:10:58,-0.97,0.15,-0.2,0.42,0.56,1.26
4:10:58,-0.97,0.15,-0.2,-0.14,1.05,1.12
4:10:58,-0.97,0.15,-0.2,-0.56,0.77,1.05
4:10:58,-0.97,0.16,-0.2,-0.7,0.35,0.91
4:10:58,-0.97,0.16,-0.2,-0.98,0.63,0.84
4:10:58,-0.97,0.16,-0.21,-1.12,0.7,0.91
4:10:58,-0.97,0.16,-0.2,-1.33,1.12,0.77
4:10:58,-0.98,0.16,-0.2,-1.96,1.26,0.63
4:10:58,-0.98,0.16,-0.2,-3.01,1.54,0.28
4:10:58,-0.98,0.15,-0.2,-3.5,1.26,0.07
4:10:58,-0.97,0.14,-0.19,-3.5,1.12,-0.07
4:10:58,-0.97,0.15,-0.19,-3.57,1.33,-0.56
4:10:58,-0.97,0.16,-0.19,-3.57,1.26,-0.63
4:10:58,-0.97,0.16,-0.2,-3.64,1.54,-0.84
4:10:58,-0.97,0.17,-0.2,-3.78,1.82,-1.33
4:10:58,-0.97,0.17,-0.2,-3.85,1.75,-1.19
4:10:58,-0.97,0.17,-0.2,-3.71,1.61,-1.05
4:10:58,-0.97,0.16,-0.2,-3.43,1.68,-0.84
4:10:58,-0.97,0.16,-0.2,-3.29,1.61,-0.63
4:10:58,-0.97,0.15,-0.2,-3.22,1.54,-0.42
4:10:58,-0.98,0.15,-0.2,-3.15,1.19,0.14
4:10:58,-0.98,0.14,-0.2,-3.36,1.61,0.21
4:10:58,-0.98,0.14,-0.19,-3.43,1.33,0.49
4:10:58,-0.98,0.14,-0.19,-3.08,1.05,0.35
4:10:58,-0.98,0.13,-0.19,-2.66,1.4,0.7
4:10:58,-0.97,0.13,-0.2,-1.96,1.12,0.98
4:10:58,-0.97,0.13,-0.2,-1.47,0.84,0.98
4:10:58,-0.97,0.12,-0.2,-1.33,1.19,1.12
4:10:58,-0.97,0.12,-0.2,-1.19,1.82,1.4
4:10:58,-0.97,0.12,-0.2,-0.84,1.54,0.49
4:10:58,-0.98,0.13,-0.2,-0.56,1.61,0.35
4:10:58,-0.98,0.13,-0.2,-0.21,1.96,0.56
4:10:58,-0.98,0.13,-0.2,0.42,1.26,0.84
4:10:58,-0.97,0.13,-0.2,2.24,0.42,0.7
4:10:58,-0.98,0.14,-0.19,3.36,-0.14,0.7
4:10:58,-0.98,0.14,-0.19,3.85,-0.91,0.84
4:10:58,-0.98,0.14,-0.19,3.85,-0.49,0.98
4:10:58,-0.98,0.14,-0.2,4.41,-1.12,1.68
4:10:58,-0.97,0.14,-0.2,5.18,-1.4,1.61
4:10:58,-0.97,0.15,-0.2,5.81,-1.61,1.89
4:10:58,-0.97,0.15,-0.2,6.02,-1.54,2.38
4:10:58,-0.97,0.14,-0.2,6.16,-1.47,2.59
4:10:58,-0.97,0.14,-0.21,6.58,-0.91,2.59
4:10:58,-0.97,0.14,-0.21,7,-1.47,3.08
4:10:58,-0.97,0.14,-0.2,6.72,-0.77,3.15
4:10:58,-0.97,0.14,-0.2,5.25,-0.14,3.29
4:10:58,-0.97,0.15,-0.2,4.2,-0.07,3.36
4:10:58,-0.97,0.16,-0.19,3.36,0.35,3.43
4:10:58,-0.97,0.16,-0.19,2.31,0.56,2.66
4:10:58,-0.97,0.16,-0.19,2.03,0.49,2.8
4:10:58,-0.97,0.16,-0.2,2.24,0.28,2.94
4:10:58,-0.97,0.17,-0.21,1.82,0,2.73
4:10:58,-0.97,0.17,-0.2,1.75,0,2.59
4:10:58,-0.97,0.17,-0.21,1.26,0.35,1.89
4:10:58,-0.97,0.17,-0.2,0.98,1.19,2.45
4:10:58,-0.96,0.17,-0.2,0.35,1.26,1.89
4:10:58,-0.97,0.17,-0.2,-0.49,0.7,1.68
4:10:58,-0.97,0.16,-0.2,0.07,0.35,1.61
4:10:58,-0.98,0.16,-0.2,-0.7,1.12,0.21
4:10:58,-0.97,0.15,-0.2,-0.98,1.33,1.47
4:10:58,-0.98,0.15,-0.2,-1.05,1.4,1.96
4:10:58,-0.98,0.15,-0.2,-1.12,0.91,1.12
4:10:58,-0.97,0.15,-0.2,-1.4,1.61,0.84
4:10:58,-0.97,0.16,-0.19,-2.24,1.89,0.49
4:10:58,-0.97,0.15,-0.2,-3.15,1.82,1.05
4:10:58,-0.97,0.15,-0.19,-2.73,1.82,0.42
4:10:58,-0.98,0.13,-0.19,-2.87,1.12,0.77
4:10:58,-0.98,0.14,-0.19,-3.15,2.24,0.63
4:10:58,-0.97,0.14,-0.2,-2.94,2.03,0.63
4:10:58,-0.97,0.15,-0.19,-3.5,1.96,0.49
4:10:58,-0.97,0.15,-0.2,-4.2,2.31,0.56
4:10:58,-0.97,0.14,-0.2,-2.87,2.73,1.26
4:10:58,-0.97,0.14,-0.21,-1.68,1.68,0.98
4:10:58,-0.97,0.14,-0.2,-0.28,1.82,1.12
4:10:58,-0.97,0.13,-0.2,0.07,1.26,1.75
4:10:58,-0.98,0.13,-0.2,-0.14,1.61,1.05
4:10:58,-0.98,0.12,-0.2,1.05,1.4,1.12
4:10:58,-0.98,0.12,-0.2,0.77,1.05,2.38
4:10:58,-0.98,0.13,-0.2,1.19,0.7,1.82
4:10:58,-0.98,0.14,-0.2,2.03,0.21,1.61
4:10:58,-0.98,0.14,-0.2,2.03,0.07,2.1
4:10:58,-0.98,0.14,-0.2,2.73,0.21,2.03
4:10:58,-0.98,0.14,-0.2,4.34,-0.7,2.17
4:10:58,-0.97,0.14,-0.2,4.9,-1.4,2.59
4:10:58,-0.97,0.14,-0.19,5.18,-1.26,2.8
4:10:58,-0.97,0.15,-0.18,4.97,-0.63,2.1
4:10:58,-0.97,0.16,-0.19,2.87,0,2.17
4:10:58,-0.97,0.15,-0.19,3.78,-0.28,2.66
4:10:58,-0.98,0.16,-0.2,4.34,-0.98,1.82
4:10:58,-0.97,0.17,-0.19,3.36,-0.63,1.82
4:10:58,-0.96,0.17,-0.19,2.66,0.07,1.75
4:10:58,-0.97,0.17,-0.19,2.24,-0.14,1.4
4:10:58,-0.97,0.16,-0.2,2.94,0.28,1.68
4:10:58,-0.97,0.16,-0.2,3.43,-0.14,1.33
4:10:58,-0.97,0.16,-0.19,1.54,0.49,1.4
4:10:58,-0.98,0.16,-0.2,0.77,0.49,1.47
4:10:58,-0.98,0.16,-0.2,1.68,-0.49,1.26
4:10:58,-0.97,0.16,-0.19,2.17,-0.07,1.54
4:10:58,-0.97,0.16,-0.2,1.96,-0.07,1.75
4:10:58,-0.97,0.16,-0.2,3.01,-0.49,1.82
4:10:58,-0.98,0.16,-0.2,3.08,-0.98,1.89
4:10:58,-0.97,0.16,-0.2,2.38,-0.28,1.33
4:10:58,-0.97,0.16,-0.2,1.05,0,1.68
4:10:58,-0.97,0.16,-0.2,0.91,0.28,1.61
4:10:58,-0.96,0.16,-0.2,1.82,0.28,1.75
4:10:58,-0.97,0.17,-0.2,0.63,0.35,1.4
4:10:58,-0.97,0.16,-0.2,1.12,0,1.12
4:10:58,-0.97,0.15,-0.2,0.35,0.21,1.68
4:10:58,-0.97,0.15,-0.2,-0.07,0.42,1.75
4:10:58,-0.97,0.16,-0.2,0.63,-0.21,0.84
4:10:58,-0.97,0.15,-0.2,0.07,0.42,1.19
4:10:58,-0.97,0.15,-0.2,-0.56,0.49,1.33
4:10:58,-0.97,0.15,-0.2,-0.14,0.63,0.84
4:10:58,-0.97,0.15,-0.2,0.07,1.05,1.4
4:10:58,-0.98,0.15,-0.2,-0.21,0.7,1.26
4:10:58,-0.97,0.15,-0.19,0.21,0.07,1.26
4:10:58,-0.97,0.14,-0.2,0.56,-0.49,2.03
4:10:58,-0.98,0.14,-0.19,1.75,-0.14,1.96
4:10:58,-0.98,0.14,-0.19,1.75,-0.07,1.54
4:10:58,-0.98,0.14,-0.19,1.4,-0.84,1.89
4:10:58,-0.98,0.14,-0.19,2.17,-0.49,1.68
4:10:58,-0.98,0.14,-0.2,2.17,-1.19,1.4
4:10:58,-0.98,0.14,-0.19,2.8,-1.26,1.05
4:10:58,-0.98,0.14,-0.19,3.22,-1.4,0.98
4:10:58,-0.97,0.14,-0.19,3.64,-1.47,1.05
4:10:58,-0.97,0.15,-0.19,3.99,-2.03,0.28
4:10:58,-0.97,0.14,-0.19,5.04,-2.66,1.61
4:10:58,-0.96,0.16,-0.19,5.39,-1.96,1.47
4:10:58,-0.97,0.16,-0.19,4.41,-1.33,0.77
4:10:58,-0.97,0.17,-0.19,3.01,-1.33,0.84
4:10:58,-0.97,0.17,-0.2,2.8,-1.05,1.54
4:10:58,-0.97,0.17,-0.2,4.2,-0.63,2.1
4:10:58,-0.97,0.18,-0.19,3.71,-0.77,2.1
4:10:58,-0.97,0.17,-0.19,2.59,-0.35,1.68
4:10:58,-0.98,0.16,-0.19,2.24,-0.28,2.03
4:10:58,-0.98,0.15,-0.19,1.47,-0.21,1.33
4:10:58,-0.98,0.14,-0.18,1.19,-0.21,1.05
4:10:58,-0.98,0.15,-0.18,0.14,0.21,0.49
4:10:58,-0.98,0.15,-0.18,-0.56,0.7,1.12
4:10:58,-0.97,0.16,-0.18,-1.12,0.91,0.42
4:10:58,-0.97,0.16,-0.19,-0.77,0.98,1.33
4:10:58,-0.97,0.16,-0.19,0.07,0.35,1.68
4:10:58,-0.97,0.16,-0.19,1.19,0.7,1.47
4:10:58,-0.97,0.15,-0.19,1.4,0.28,1.47
4:10:58,-0.97,0.14,-0.19,1.26,0.84,1.82
4:10:58,-0.98,0.15,-0.19,1.05,1.05,1.33
4:10:58,-0.98,0.14,-0.19,1.33,0.91,1.96
4:10:58,-0.98,0.14,-0.18,1.33,0.98,1.61
4:10:58,-0.98,0.14,-0.18,1.61,1.05,1.82
4:10:58,-0.98,0.14,-0.18,1.96,0.84,1.19
4:10:58,-0.98,0.14,-0.18,2.03,0.7,1.68
4:10:58,-0.98,0.14,-0.18,2.45,0.14,1.68
4:10:58,-0.98,0.14,-0.18,3.5,0,1.4
4:10:58,-0.98,0.14,-0.19,4.41,-0.07,1.68
4:10:58,-0.97,0.14,-0.19,4.76,-0.49,1.61
4:10:58,-0.97,0.15,-0.19,4.55,-0.21,1.26
4:10:58,-0.97,0.16,-0.19,3.99,0.14,1.4
4:10:58,-0.98,0.16,-0.19,3.57,0.42,0.98
4:10:58,-0.97,0.16,-0.19,2.8,0.49,0.35
4:10:58,-0.97,0.17,-0.19,2.66,0.21,1.05
4:10:58,-0.98,0.17,-0.19,3.01,0.28,1.12
4:10:58,-0.97,0.18,-0.18,3.15,0.35,0.7
4:10:58,-0.97,0.17,-0.19,2.8,0.56,1.05
4:10:58,-0.98,0.17,-0.18,1.89,0.77,0.21
4:10:58,-0.98,0.17,-0.18,0.63,1.75,0.56
4:10:58,-0.97,0.17,-0.18,-0.14,1.33,0.49
4:10:58,-0.97,0.17,-0.18,-0.35,1.4,0.07
4:10:58,-0.97,0.17,-0.18,-0.21,1.4,0.63
4:10:58,-0.97,0.17,-0.19,-0.35,1.33,0.42
4:10:58,-0.97,0.17,-0.19,-0.42,1.26,0.49
4:10:58,-0.97,0.17,-0.19,-0.49,1.68,0.98
4:10:58,-0.97,0.17,-0.19,-0.77,1.47,0.42
4:10:58,-0.97,0.16,-0.19,-1.47,1.75,0.35
4:10:58,-0.98,0.16,-0.19,-1.96,2.1,0.21
4:10:58,-0.97,0.15,-0.19,-2.03,2.24,0.77
4:10:58,-0.98,0.15,-0.19,-1.82,1.96,0.7
4:10:58,-0.98,0.15,-0.18,-1.47,1.4,0.98
4:10:58,-0.97,0.15,-0.19,-1.05,1.26,1.33
4:10:58,-0.97,0.16,-0.19,-0.56,1.12,1.26
4:10:58,-0.97,0.16,-0.19,-0.21,1.4,0.98
4:10:58,-0.97,0.15,-0.2,-0.21,1.68,1.19
4:10:58,-0.98,0.15,-0.2,-0.21,1.89,1.19
4:10:58,-0.97,0.14,-0.2,-0.28,1.82,1.05
4:10:58,-0.97,0.14,-0.2,-0.42,1.89,1.05
4:10:58,-0.97,0.13,-0.19,-0.63,1.61,0.7
4:10:58,-0.98,0.13,-0.19,-0.98,1.89,0.77
4:10:58,-0.98,0.14,-0.19,-1.12,1.82,0.7
4:10:58,-0.98,0.15,-0.19,-0.98,1.68,0.77
4:10:58,-0.97,0.15,-0.19,-0.35,1.4,0.91
4:10:58,-0.97,0.16,-0.19,-0.14,1.68,0.77
4:10:58,-0.97,0.16,-0.19,0.07,1.33,1.26
4:10:58,-0.97,0.15,-0.19,0.49,1.47,1.05
4:10:58,-0.98,0.15,-0.2,0.98,0.77,0.98
4:10:58,-0.97,0.15,-0.2,1.47,0.91,1.33
4:10:58,-0.97,0.15,-0.2,1.75,0.49,0.98
4:10:58,-0.97,0.15,-0.2,1.68,0.84,1.05
4:10:58,-0.97,0.15,-0.2,0.77,1.19,0.77
4:10:58,-0.97,0.15,-0.19,0.14,1.33,0.56
4:10:58,-0.97,0.15,-0.19,-0.42,1.61,0.56
4:10:58,-0.97,0.16,-0.19,-0.84,1.61,0.14
4:10:58,-0.97,0.16,-0.19,-1.12,2.03,0.07
4:10:58,-0.97,0.16,-0.19,-1.26,1.47,0.07
4:10:58,-0.98,0.17,-0.19,-0.98,1.12,0.21
4:10:58,-0.97,0.17,-0.19,-0.14,0.21,0.28
4:10:58,-0.96,0.17,-0.19,0.42,0.28,0.7
4:10:58,-0.96,0.17,-0.19,0,1.05,0.7
4:10:58,-0.97,0.17,-0.2,-0.21,0.91,0.56
4:10:58,-0.97,0.17,-0.2,-0.07,0.98,0.49
4:10:58,-0.96,0.16,-0.2,-0.49,1.26,0.35
4:10:58,-0.97,0.17,-0.2,-2.03,1.89,0.07
4:10:58,-0.97,0.16,-0.2,-3.36,2.38,-0.28
4:10:58,-0.98,0.16,-0.2,-4.27,2.38,-0.21
4:10:58,-0.97,0.16,-0.2,-4.48,2.31,-0.35
4:10:58,-0.97,0.16,-0.19,-4.69,2.45,-0.42
4:10:58,-0.98,0.16,-0.19,-4.55,2.73,-0.28
4:10:58,-0.98,0.15,-0.19,-4.97,2.66,-0.98
4:10:58,-0.97,0.15,-0.19,-5.32,2.52,-0.56
4:10:58,-0.97,0.16,-0.19,-5.11,2.17,-0.21
4:10:58,-0.97,0.16,-0.19,-5.32,2.38,-1.05
4:10:58,-0.97,0.16,-0.2,-5.53,2.17,-0.77
4:10:58,-0.97,0.16,-0.2,-5.53,2.73,-0.77
4:10:58,-0.97,0.15,-0.2,-5.04,2.87,-0.42
4:10:58,-0.98,0.14,-0.2,-4.13,2.73,-0.14
4:10:58,-0.98,0.14,-0.2,-3.22,2.52,0
4:10:58,-0.98,0.14,-0.2,-2.59,2.1,0.77
4:10:58,-0.98,0.14,-0.2,-2.31,1.75,0.84
4:10:58,-0.98,0.14,-0.19,-2.17,1.96,0.56
4:10:58,-0.98,0.14,-0.2,-1.68,1.12,1.26
4:10:58,-0.98,0.13,-0.19,-1.05,0.84,1.19
4:10:58,-0.98,0.13,-0.2,-0.14,0.35,1.54
4:10:58,-0.98,0.13,-0.2,0.77,0.07,1.61
4:10:58,-0.97,0.13,-0.2,1.26,0,2.03
4:10:58,-0.97,0.13,-0.2,1.4,0,1.75
4:10:58,-0.98,0.14,-0.2,1.33,0,1.33
4:10:58,-0.98,0.14,-0.21,1.61,0.28,2.24
4:10:58,-0.97,0.14,-0.2,2.03,0.42,2.1
4:10:58,-0.97,0.14,-0.2,2.52,0.21,2.38
4:10:58,-0.98,0.14,-0.2,2.8,-0.77,2.38
4:10:58,-0.98,0.14,-0.19,3.08,-0.49,2.1
4:10:58,-0.98,0.15,-0.19,3.29,-0.63,2.31
4:10:58,-0.97,0.15,-0.19,3.5,-0.7,2.87
4:10:58,-0.98,0.15,-0.2,3.78,-0.98,2.73
4:10:58,-0.98,0.15,-0.19,4.06,-0.84,2.94
4:10:58,-0.97,0.15,-0.19,4.2,-0.91,2.94
4:10:58,-0.97,0.14,-0.2,4.62,-1.05,3.01
4:10:58,-0.97,0.14,-0.2,5.04,-1.54,3.01
4:10:58,-0.97,0.14,-0.2,5.46,-1.68,2.52
4:10:58,-0.98,0.14,-0.2,5.39,-1.33,3.15
4:10:58,-0.97,0.15,-0.2,5.18,-1.26,2.59
4:10:58,-0.97,0.15,-0.2,5.04,-1.19,2.8
4:10:58,-0.97,0.15,-0.2,4.76,-0.77,2.73
4:10:58,-0.97,0.15,-0.2,4.27,-0.42,2.66
4:10:58,-0.97,0.15,-0.19,3.85,-0.42,2.73
4:10:58,-0.97,0.16,-0.19,3.57,-0.28,2.73
4:10:58,-0.98,0.16,-0.19,3.5,-0.56,2.87
4:10:58,-0.98,0.16,-0.19,3.64,-0.42,3.15
4:10:58,-0.98,0.16,-0.19,3.71,-0.98,3.29
4:10:58,-0.98,0.16,-0.18,4.27,-0.98,3.5
4:10:58,-0.98,0.15,-0.18,4.9,-1.12,3.78
4:10:58,-0.98,0.14,-0.19,5.46,-1.68,4.13
4:10:58,-0.98,0.14,-0.18,5.88,-1.82,4.13
4:10:58,-0.98,0.13,-0.19,6.37,-1.96,4.2
4:10:58,-0.97,0.13,-0.19,6.65,-1.54,3.85
4:10:58,-0.98,0.13,-0.19,6.3,-0.91,3.57
4:10:58,-0.98,0.13,-0.19,5.74,-0.84,3.22
4:10:58,-0.97,0.14,-0.19,5.18,-0.56,2.73
4:10:58,-0.97,0.15,-0.19,5.04,-0.21,2.17
4:10:58,-0.97,0.16,-0.19,4.9,-0.56,2.1
4:10:58,-0.97,0.16,-0.19,4.97,-0.7,1.89
4:10:58,-0.97,0.17,-0.19,5.32,-0.91,2.03
4:10:58,-0.97,0.17,-0.19,5.67,-1.33,2.1
4:10:58,-0.97,0.18,-0.19,6.02,-1.68,1.96
4:10:58,-0.97,0.18,-0.19,5.46,-1.75,1.4
4:10:58,-0.97,0.18,-0.19,4.69,-1.05,1.33
4:10:58,-0.97,0.18,-0.19,3.64,-0.7,0.84
4:10:58,-0.97,0.19,-0.19,2.38,0.14,0.77
4:10:58,-0.97,0.2,-0.19,0.77,0,0.63
4:10:58,-0.97,0.2,-0.19,-0.21,0.63,0.28
4:10:58,-0.96,0.21,-0.19,-0.49,0.7,0.7
4:10:58,-0.96,0.21,-0.19,-0.63,0.98,0.63
4:10:58,-0.96,0.21,-0.19,-0.84,1.12,0.49
4:10:58,-0.96,0.2,-0.19,-1.54,1.4,0.28
4:10:58,-0.97,0.2,-0.18,-2.94,1.96,0.07
4:10:58,-0.97,0.19,-0.18,-3.92,2.17,0.28
4:10:58,-0.97,0.19,-0.18,-4.9,2.59,-0.21
4:10:58,-0.97,0.19,-0.18,-5.67,2.94,-0.07
4:10:58,-0.97,0.18,-0.19,-6.3,3.01,-0.07
4:10:58,-0.98,0.18,-0.19,-6.86,2.87,-0.63
4:10:58,-0.97,0.17,-0.19,-7.28,2.87,-0.28
4:10:58,-0.97,0.17,-0.18,-7.49,2.94,-0.49
4:10:58,-0.98,0.16,-0.18,-7.35,3.36,-0.21
4:10:58,-0.97,0.16,-0.19,-7.07,3.01,-0.28
4:10:58,-0.98,0.15,-0.19,-6.93,2.87,-0.63
4:10:58,-0.98,0.15,-0.19,-6.79,2.87,-0.21
4:10:58,-0.97,0.15,-0.19,-6.86,3.22,-0.14
4:10:58,-0.97,0.15,-0.19,-7.21,3.43,-0.42
4:10:58,-0.97,0.16,-0.19,-7.49,3.36,-0.63
4:10:58,-0.98,0.16,-0.19,-7.98,3.64,-0.77
4:10:58,-0.97,0.16,-0.19,-7.77,3.5,-0.21
4:10:58,-0.97,0.15,-0.19,-7.14,3.22,-0.56
4:10:58,-0.98,0.16,-0.19,-6.51,2.52,-0.21
4:10:58,-0.98,0.15,-0.19,-5.67,2.17,-0.21
4:10:58,-0.98,0.15,-0.19,-5.11,1.96,0.07
4:10:58,-0.98,0.14,-0.19,-4.83,1.82,-0.63
4:10:58,-0.98,0.14,-0.19,-4.62,1.61,-0.28
4:10:58,-0.97,0.14,-0.19,-4.34,1.61,-0.42
4:10:58,-0.97,0.13,-0.19,-4.48,1.89,-0.91
4:10:58,-0.97,0.13,-0.19,-4.06,1.4,-0.56
4:10:58,-0.97,0.14,-0.2,-4.06,1.96,-0.7
4:10:58,-0.97,0.14,-0.2,-3.64,1.82,-0.49
4:10:58,-0.97,0.15,-0.2,-3.15,1.61,-0.56
4:10:58,-0.97,0.15,-0.2,-2.73,2.03,-0.49
4:10:58,-0.97,0.16,-0.2,-2.52,2.17,-0.56
4:10:58,-0.97,0.15,-0.2,-2.45,2.03,-0.49
4:10:58,-0.97,0.15,-0.2,-2.03,2.1,-0.14
4:10:58,-0.97,0.16,-0.19,-1.75,1.89,-0.35
4:10:58,-0.98,0.15,-0.19,-1.89,1.75,-0.49
4:10:58,-0.98,0.15,-0.19,-2.03,1.75,-0.21
4:10:58,-0.97,0.15,-0.19,-2.17,1.68,-0.28
4:10:58,-0.98,0.16,-0.19,-2.17,1.47,-0.7
4:10:58,-0.98,0.16,-0.19,-1.89,1.47,-0.21
4:10:58,-0.97,0.16,-0.19,-1.68,1.33,-0.21
4:10:58,-0.97,0.16,-0.19,-1.68,1.26,0.21
4:10:58,-0.97,0.17,-0.19,-1.75,0.98,0.56
4:10:58,-0.97,0.17,-0.19,-1.89,1.26,0.14
4:10:58,-0.97,0.17,-0.19,-2.52,1.61,0.28
4:10:58,-0.98,0.16,-0.19,-2.73,1.89,0.49
4:10:58,-0.97,0.16,-0.19,-2.8,1.4,0.21
4:10:58,-0.97,0.15,-0.19,-2.73,1.61,0.28
4:10:58,-0.97,0.15,-0.19,-2.38,1.47,0.14
4:10:58,-0.98,0.15,-0.19,-2.24,1.33,-17.64
4:10:58,-0.97,0.15,-0.19,-1.89,1.19,0.49
4:10:58,-0.98,0.15,-0.19,-1.89,1.54,0.28
4:10:58,-0.97,0.16,-0.19,-2.31,1.26,0.07
4:10:58,-0.97,0.16,-0.19,-2.24,1.54,0.42
4:10:58,-0.97,0.15,-0.2,-1.75,1.68,0.28
4:10:58,-0.97,0.15,-0.2,-1.33,1.33,0.56
4:10:58,-0.97,0.16,-0.2,-0.84,1.4,0.42
4:10:58,-0.97,0.16,-0.2,-0.7,1.19,0.35
4:10:58,-0.97,0.16,-0.2,-0.63,0.84,0.63
4:10:58,-0.98,0.15,-0.2,-0.7,0.7,0.14
4:10:58,-0.97,0.15,-0.2,-0.63,0.35,0.63
4:10:58,-0.97,0.15,-0.19,-0.63,0.35,0.7
4:10:58,-0.97,0.15,-0.2,-0.63,0.49,0.49
4:10:58,-0.97,0.15,-0.2,-0.49,0.21,0.21
4:10:58,-0.97,0.15,-0.2,-0.84,0.49,0.63
4:10:58,-0.97,0.15,-0.2,-1.05,1.54,0.56
4:10:58,-0.97,0.15,-0.2,-1.19,1.47,0.28
4:10:58,-0.98,0.15,-0.2,-1.12,1.4,0.7
4:10:58,-0.97,0.15,-0.2,-0.77,1.05,0.49
4:10:58,-0.97,0.14,-0.2,-0.21,0.7,0.7
4:10:58,-0.97,0.15,-0.2,0.07,0.84,1.05
4:10:58,-0.98,0.15,-0.2,0.35,0.63,1.12
4:10:58,-0.98,0.15,-0.2,0.49,0.42,1.47
4:10:58,-0.97,0.15,-0.2,0.42,0.35,1.26
4:10:58,-0.97,0.15,-0.2,0.35,0.77,1.75
4:10:58,-0.98,0.15,-0.2,0.28,0.91,1.61
4:10:58,-0.98,0.15,-0.19,0.49,0.63,1.68
4:10:58,-0.97,0.14,-0.2,0.63,0.07,1.68
4:10:58,-0.97,0.14,-0.2,1.12,0.07,2.24
4:10:58,-0.97,0.14,-0.2,1.54,0,2.1
4:10:58,-0.97,0.15,-0.2,1.68,0.28,1.54
4:10:58,-0.97,0.15,-0.2,1.12,-0.07,1.75
4:10:58,-0.97,0.15,-0.19,0.84,0.7,1.75
4:10:58,-0.97,0.15,-0.19,0.84,0.91,1.61
4:10:58,-0.97,0.16,-0.19,0.91,0.7,1.47
4:10:58,-0.97,0.16,-0.19,0.91,0.56,1.4
4:10:58,-0.97,0.16,-0.19,0.91,0.7,0.98
4:10:58,-0.97,0.16,-0.19,0.91,0.56,0.98
4:10:58,-0.97,0.16,-0.19,0.84,0.7,0.91
4:10:58,-0.97,0.16,-0.19,0.77,0.84,0.77
4:10:58,-0.97,0.15,-0.19,0.49,0.84,1.19
4:10:58,-0.97,0.16,-0.19,0.28,1.12,0.91
4:10:58,-0.97,0.15,-0.19,0.21,0.7,0.63
4:10:58,-0.97,0.16,-0.19,0,0.63,0.84
4:10:58,-0.97,0.16,-0.19,-0.14,0.84,0.7
4:10:58,-0.97,0.15,-0.19,-0.21,0.98,0.7
4:10:58,-0.97,0.15,-0.19,-0.21,1.26,0.91
4:10:58,-0.97,0.15,-0.19,-0.21,1.26,0.91
4:10:58,-0.98,0.15,-0.19,-0.21,1.26,0.84
4:10:58,-0.98,0.15,-0.19,-0.35,1.12,0.84
4:10:58,-0.98,0.15,-0.19,-0.21,0.91,1.12
4:10:58,-0.97,0.15,-0.19,0,0.7,1.19
4:10:58,-0.98,0.16,-0.19,0.28,0.35,1.05
4:10:58,-0.98,0.15,-0.19,0.35,0.91,0.98
4:10:58,-0.97,0.15,-0.19,0.63,0.42,1.47
4:10:58,-0.97,0.16,-0.19,0.42,0.77,1.54
4:10:58,-0.97,0.16,-0.19,0.56,0.7,1.26
4:10:58,-0.97,0.16,-0.19,0.28,0.77,1.12
4:10:58,-0.97,0.16,-0.19,0.14,0.77,1.47
4:10:58,-0.97,0.16,-0.19,-0.07,1.05,1.26
4:10:58,-0.97,0.16,-0.19,-0.14,0.77,1.4
4:10:58,-0.97,0.16,-0.19,-0.35,0.84,0.98
4:10:58,-0.97,0.16,-0.19,-0.49,0.7,1.19
4:10:58,-0.97,0.16,-0.19,-1.12,0.98,0.77
4:10:58,-0.97,0.16,-0.19,-1.54,1.47,0.56
4:10:58,-0.97,0.16,-0.19,-2.1,1.47,0.21
4:10:58,-0.97,0.16,-0.19,-2.24,1.33,0.49
4:10:58,-0.97,0.16,-0.2,-2.1,1.54,0.42
4:10:58,-0.97,0.16,-0.19,-2.66,1.89,0.28
4:10:58,-0.97,0.16,-0.19,-2.52,1.54,0.42
4:10:58,-0.97,0.16,-0.19,-2.66,1.61,0.49
4:10:58,-0.97,0.16,-0.19,-2.87,1.82,0.42
4:10:58,-0.97,0.16,-0.19,-2.87,1.68,0.28
4:10:58,-0.97,0.15,-0.19,-2.73,1.82,0.35
4:10:58,-0.97,0.15,-0.19,-2.24,2.03,0.21
4:10:58,-0.98,0.16,-0.19,-2.24,1.68,0
4:10:58,-0.97,0.15,-0.2,-2.59,1.61,0.56
4:10:58,-0.98,0.15,-0.2,-2.17,1.96,0.42
4:10:58,-0.97,0.16,-0.19,-1.96,1.19,0.49
4:10:58,-0.97,0.16,-0.2,-2.24,1.19,0.49
4:10:58,-0.97,0.16,-0.19,-2.45,1.68,0.42
4:10:58,-0.97,0.15,-0.2,-2.03,1.19,0.49
4:10:58,-0.97,0.15,-0.19,-1.82,1.33,0.56
4:10:58,-0.97,0.15,-0.19,-1.61,1.54,0.21
4:10:58,-0.98,0.15,-0.19,-2.17,1.4,0.35
4:10:58,-0.97,0.15,-0.2,-2.45,1.75,0.21
4:10:58,-0.97,0.16,-0.19,-2.8,1.89,0.28
4:10:58,-0.97,0.16,-0.2,-3.08,1.61,0.35
4:10:58,-0.97,0.17,-0.2,-2.73,1.89,0.21
4:10:58,-0.97,0.16,-0.2,-2.38,1.89,0.07
4:10:58,-0.97,0.16,-0.2,-2.1,1.61,0.42
4:10:58,-0.97,0.15,-0.2,-1.89,1.89,0.14
4:10:58,-0.98,0.15,-0.2,-1.68,0.91,-0.07
4:10:58,-0.97,0.15,-0.2,-1.96,1.54,-0.14
4:10:58,-0.97,0.15,-0.19,-2.17,1.54,0.07
4:10:58,-0.97,0.16,-0.2,-2.59,1.4,-0.21
4:10:58,-0.97,0.16,-0.2,-2.73,1.61,0
4:10:58,-0.97,0.16,-0.19,-2.94,2.03,0
4:10:58,-0.97,0.16,-0.19,-2.87,2.03,0.21
4:10:58,-0.97,0.17,-0.2,-2.24,1.89,0.21
4:10:58,-0.97,0.16,-0.2,-1.96,1.82,0.56
4:10:58,-0.97,0.16,-0.19,-2.24,1.68,0.28
4:10:58,-0.97,0.16,-0.2,-2.31,1.75,0.07
4:10:58,-0.98,0.15,-0.2,-2.45,1.12,-0.07
4:10:58,-0.98,0.15,-0.2,-2.73,1.05,-0.21
4:10:58,-0.97,0.16,-0.2,-3.43,1.68,-0.35
4:10:58,-0.97,0.16,-0.2,-3.85,1.68,-0.84
4:10:58,-0.97,0.15,-0.2,-3.85,1.68,-0.28
4:10:58,-0.97,0.16,-0.19,-3.85,2.24,-0.42
4:10:58,-0.97,0.16,-0.19,-3.92,2.1,17.36
4:11:13,-0.98,0.13,-0.19,0.42,0.14,0.84
4:11:13,-0.98,0.13,-0.19,0.35,0.14,0.98
4:11:13,-0.98,0.13,-0.19,0.7,0.21,1.05
4:11:13,-0.98,0.14,-0.2,0.84,0.21,0.84
4:11:13,-0.98,0.14,-0.2,0.77,0.63,1.05
4:11:13,-0.98,0.14,-0.2,0.42,0.56,0.98
4:11:13,-0.97,0.14,-0.2,0.14,0.63,1.05
4:11:13,-0.97,0.14,-0.2,0.35,0.56,0.91
4:11:13,-0.98,0.14,-0.2,0.49,0.63,0.56
4:11:13,-0.98,0.13,-0.2,0.63,0.56,1.33
4:11:13,-0.97,0.13,-0.2,0.42,0.77,1.05
4:11:13,-0.97,0.13,-0.2,0.49,0.77,1.33
4:11:13,-0.98,0.14,-0.2,0.7,0.35,0.84
4:11:13,-0.98,0.14,-0.2,0.63,0.7,0.77
4:11:13,-0.98,0.14,-0.2,0.42,0.77,0.63
4:11:13,-0.97,0.14,-0.19,0.56,0.56,1.26
4:11:13,-0.97,0.14,-0.2,0.98,0.63,0.98
4:11:13,-0.98,0.14,-0.2,0.77,0.35,1.05
4:11:13,-0.98,0.14,-0.2,0.42,0.98,1.26
4:11:13,-0.98,0.14,-0.2,0.56,0.63,1.12
4:11:13,-0.98,0.13,-0.2,0.77,0.28,1.26
4:11:13,-0.97,0.13,-0.19,1.05,0.49,1.4
4:11:13,-0.97,0.13,-0.2,0.98,0.84,0.98
4:11:13,-0.98,0.13,-0.2,0.77,0.77,0.91
4:11:13,-0.98,0.13,-0.2,0.77,0.77,1.33
4:11:13,-0.98,0.14,-0.2,0.63,1.19,1.26
4:11:13,-0.98,0.14,-0.2,0.7,0.77,1.61
4:11:13,-0.98,0.14,-0.2,1.26,1.05,1.26
4:11:13,-0.98,0.14,-0.2,0.56,1.05,1.26
4:11:13,-0.98,0.13,-0.2,0.14,0.28,1.19
4:11:13,-0.98,0.13,-0.19,0,0.28,1.54
4:11:13,-0.98,0.13,-0.19,0.84,0.35,1.75
4:11:13,-0.98,0.13,-0.2,1.4,0.21,1.4
4:11:13,-0.98,0.13,-0.2,1.05,0.28,1.54
4:11:13,-0.98,0.13,-0.2,1.05,0.42,1.54
4:11:13,-0.98,0.13,-0.2,1.19,0.21,1.61
4:11:13,-0.97,0.13,-0.2,1.54,0.07,1.26
4:11:13,-0.97,0.13,-0.2,1.75,-0.14,1.19
4:11:13,-0.97,0.13,-0.2,1.75,0.42,1.26
4:11:13,-0.97,0.13,-0.2,2.03,0.28,0.98
4:11:13,-0.98,0.14,-0.21,1.82,0.49,1.19
4:11:13,-0.98,0.14,-0.21,1.82,0.28,0.84
4:11:13,-0.97,0.14,-0.2,1.96,0.14,1.12
4:11:13,-0.97,0.13,-0.2,2.38,-0.28,1.19
4:11:13,-0.97,0.13,-0.2,2.73,0,1.19
4:11:13,-0.97,0.13,-0.2,2.8,-0.42,0.98
4:11:13,-0.97,0.13,-0.2,2.52,-0.21,0.84
4:11:13,-0.98,0.13,-0.2,2.24,0.28,1.26
4:11:13,-0.97,0.13,-0.2,1.89,0.49,0.98
4:11:13,-0.97,0.13,-0.2,2.03,1.05,1.19
4:11:13,-0.97,0.13,-0.2,2.03,0.63,1.05
4:11:13,-0.98,0.13,-0.2,1.96,0.42,0.84
4:11:13,-0.98,0.13,-0.2,2.45,0.07,1.12
4:11:13,-0.98,0.13,-0.2,2.45,0,0.77
4:11:13,-0.98,0.13,-0.2,2.66,-0.21,1.05
4:11:13,-0.98,0.13,-0.2,2.59,-0.21,0.98
4:11:13,-0.98,0.13,-0.2,2.52,-0.35,1.12
4:11:13,-0.97,0.14,-0.2,2.38,0.28,0.84
4:11:13,-0.97,0.14,-0.2,2.24,0.35,1.4
4:11:13,-0.98,0.15,-0.2,2.03,-0.14,0.98
4:11:13,-0.97,0.13,-0.19,2.52,0.28,1.4
4:11:13,-0.97,0.14,-0.2,3.01,0.28,1.68
4:11:13,-0.97,0.14,-0.2,3.08,-0.42,1.26
4:11:13,-0.98,0.14,-0.19,2.87,-0.14,0.98
4:11:13,-0.97,0.14,-0.2,2.24,0,0.98
4:11:13,-0.97,0.14,-0.19,1.82,0.28,1.19
4:11:13,-0.97,0.14,-0.19,1.89,0.28,1.19
4:11:13,-0.97,0.15,-0.2,1.54,0.7,0.63
4:11:13,-0.97,0.15,-0.19,1.54,0.63,0.91
4:11:13,-0.97,0.15,-0.19,1.19,0.98,0.84
4:11:13,-0.98,0.14,-0.19,1.05,0.98,0.77
4:11:13,-0.98,0.14,-0.19,1.12,0.77,0.7
4:11:13,-0.98,0.14,-0.19,1.4,0.49,1.05
4:11:13,-0.98,0.14,-0.19,1.4,0.21,1.19
4:11:13,-0.98,0.14,-0.19,1.47,0.42,0.98
4:11:13,-0.98,0.14,-0.19,1.47,0.56,0.98
4:11:13,-0.98,0.13,-0.19,1.75,0.56,1.33
4:11:13,-0.97,0.13,-0.19,1.89,0.49,1.33
4:11:13,-0.98,0.13,-0.19,1.75,0.35,1.12
4:11:13,-0.98,0.13,-0.19,1.61,0.7,1.19
4:11:13,-0.98,0.13,-0.19,1.19,0.7,1.05
4:11:13,-0.98,0.13,-0.19,1.19,0.7,0.84
4:11:13,-0.98,0.14,-0.19,1.4,0.7,1.47
4:11:13,-0.97,0.13,-0.19,1.47,0.7,1.26
4:11:13,-0.97,0.14,-0.19,1.68,0.84,0.84
4:11:13,-0.98,0.13,-0.19,1.68,0.42,1.12
4:11:13,-0.98,0.13,-0.19,1.68,0.91,0.63
4:11:13,-0.98,0.13,-0.2,1.68,1.05,0.7
4:11:13,-0.98,0.13,-0.19,1.47,0.98,0.84
4:11:13,-0.97,0.14,-0.19,1.61,0.84,0.84
4:11:13,-0.97,0.14,-0.2,1.4,0.98,0.63
4:11:13,-0.97,0.14,-0.2,1.61,0.49,0.77
4:11:13,-0.98,0.14,-0.2,1.4,0.7,0.56
4:11:13,-0.98,0.14,-0.2,1.26,0.77,1.19
4:11:13,-0.98,0.14,-0.2,0.77,0.84,0.7
4:11:13,-0.98,0.13,-0.2,0.7,1.19,1.05
4:11:13,-0.98,0.13,-0.2,0.77,1.19,0.7
4:11:13,-0.98,0.14,-0.19,0.98,0.98,0.77
4:11:13,-0.97,0.13,-0.19,0.84,0.49,1.12
4:11:13,-0.97,0.14,-0.19,0.63,0.49,0.7
4:11:13,-0.97,0.14,-0.2,0.28,0.77,0.84
4:11:13,-0.97,0.14,-0.2,-0.21,1.19,0.7
4:11:13,-0.97,0.14,-0.2,-0.49,1.4,0.49
4:11:13,-0.97,0.14,-0.2,-0.98,2.1,0.63
4:11:13,-0.98,0.13,-0.2,-1.05,1.96,0.07
4:11:13,-0.98,0.13,-0.2,-1.19,1.96,0.42
4:11:13,-0.97,0.13,-0.19,-1.26,2.24,0.28
4:11:13,-0.98,0.13,-0.19,-1.12,1.68,0.42
4:11:13,-0.98,0.13,-0.19,-0.77,1.33,0.56
4:11:13,-0.98,0.13,-0.19,-0.84,0.77,0.42
4:11:13,-0.97,0.14,-0.2,-0.63,1.4,0.42
4:11:13,-0.98,0.13,-0.2,-0.63,0.84,0.28
4:11:13,-0.98,0.13,-0.2,-0.84,1.19,0.14
4:11:13,-0.97,0.12,-0.2,-0.84,1.68,0.7
4:11:13,-0.97,0.13,-0.2,-0.7,1.75,0.63
4:11:13,-0.98,0.13,-0.2,-0.56,1.54,0.49
4:11:13,-0.98,0.13,-0.2,-0.49,1.33,0.7
4:11:13,-0.98,0.14,-0.2,-0.56,1.19,0.7
4:11:13,-0.98,0.13,-0.2,-0.42,0.91,0.49
4:11:13,-0.98,0.13,-0.2,-0.42,0.98,0.91
4:11:13,-0.98,0.13,-0.2,-0.42,0.98,0.42
4:11:13,-0.98,0.12,-0.2,-0.42,0.98,0.49
4:11:13,-0.97,0.12,-0.2,-0.63,1.12,0.77
4:11:13,-0.97,0.12,-0.2,-0.49,1.47,0.42
4:11:13,-0.98,0.13,-0.2,-0.98,1.05,0.91
4:11:13,-0.98,0.13,-0.2,-1.33,1.19,0.49
4:11:13,-0.97,0.13,-0.2,-0.91,1.54,1.05
4:11:13,-0.97,0.13,-0.2,-0.35,1.05,1.05
4:11:13,-0.98,0.13,-0.2,0.28,0.84,0.91
4:11:13,-0.97,0.13,-0.2,0.21,0.98,1.05
4:11:13,-0.98,0.13,-0.2,0.07,0.91,0.98
4:11:13,-0.98,0.13,-0.2,-0.21,1.19,0.98
4:11:13,-0.98,0.13,-0.2,-0.28,1.26,1.26
4:11:13,-0.98,0.13,-0.2,-0.28,1.12,0.7
4:11:13,-0.98,0.13,-0.2,-0.21,0.98,1.05
4:11:13,-0.97,0.13,-0.2,-0.14,1.12,1.4
4:11:13,-0.98,0.13,-0.2,0.07,0.63,1.33
4:11:13,-0.98,0.13,-0.2,0.35,0.98,0.84
4:11:13,-0.98,0.13,-0.2,0.14,0.77,2.03
4:11:13,-0.98,0.13,-0.2,0.14,0.7,1.33
4:11:13,-0.98,0.13,-0.2,-0.21,0.77,1.19
4:11:13,-0.98,0.13,-0.2,-0.14,1.33,1.61
4:11:13,-0.98,0.13,-0.2,-0.14,1.54,1.12
4:11:13,-0.98,0.13,-0.2,-0.28,1.05,1.4
4:11:13,-0.97,0.13,-0.2,-0.28,1.19,1.4
4:11:13,-0.98,0.13,-0.2,-0.21,0.91,1.12
4:11:13,-0.97,0.13,-0.2,0.14,0.49,1.47
4:11:13,-0.97,0.13,-0.2,0.49,1.05,1.54
4:11:13,-0.97,0.13,-0.2,0.77,0.91,1.75
4:11:13,-0.97,0.13,-0.2,0.84,0.84,1.54
4:11:13,-0.97,0.13,-0.2,0.49,0.84,1.19
4:11:13,-0.98,0.13,-0.2,0.56,0.56,1.12
4:11:13,-0.98,0.13,-0.2,0.42,0.7,1.33
4:11:13,-0.97,0.13,-0.2,0.84,0.77,1.4
4:11:13,-0.98,0.13,-0.2,0.98,0,1.33
4:11:13,-0.97,0.13,-0.2,0.7,0.28,1.47
4:11:13,-0.98,0.13,-0.2,0.63,0.7,1.33
4:11:13,-0.98,0.13,-0.2,0.77,0.42,1.68
4:11:13,-0.98,0.14,-0.2,0.84,0.49,1.12
4:11:13,-0.98,0.14,-0.2,0.84,0.77,1.61
4:11:13,-0.98,0.13,-0.2,0.63,0.91,1.75
4:11:13,-0.97,0.13,-0.2,0.7,0.56,1.47
4:11:13,-0.98,0.14,-0.2,0.63,0.84,1.47
4:11:13,-0.97,0.14,-0.2,0.49,0.7,1.12
4:11:13,-0.98,0.14,-0.2,0.28,0.35,1.61
4:11:13,-0.98,0.14,-0.2,0.28,0.63,1.33
4:11:13,-0.98,0.14,-0.2,0.35,0.42,1.75
4:11:13,-0.98,0.14,-0.2,0.14,0.84,1.75
4:11:13,-0.98,0.14,-0.2,-0.14,0.7,1.68
4:11:13,-0.97,0.13,-0.2,-0.07,0.91,1.47
4:11:13,-0.97,0.14,-0.2,-0.28,0.42,1.89
4:11:13,-0.97,0.14,-0.2,-0.56,0.91,1.54
4:11:13,-0.97,0.14,-0.2,-0.63,1.05,1.54
4:11:13,-0.97,0.14,-0.2,-0.84,1.26,1.54
4:11:13,-0.97,0.14,-0.2,-0.91,1.05,1.47
4:11:13,-0.98,0.14,-0.2,-1.05,1.12,1.4
4:11:13,-0.98,0.13,-0.2,-0.91,1.05,0.98
4:11:13,-0.97,0.13,-0.19,-0.42,0.77,0.91
4:11:13,-0.98,0.13,-0.2,-0.77,1.19,1.33
4:11:13,-0.98,0.14,-0.2,-0.84,0.7,1.05
4:11:13,-0.98,0.14,-0.2,-0.21,0.77,1.12
4:11:13,-0.97,0.14,-0.2,0.14,0.7,1.12
4:11:13,-0.98,0.14,-0.2,-0.14,1.26,1.05
4:11:13,-0.98,0.14,-0.2,-0.07,0.91,0.98
4:11:13,-0.98,0.14,-0.2,-0.28,0.63,1.05
4:11:13,-0.98,0.13,-0.2,-0.07,0.91,1.26
4:11:13,-0.98,0.13,-0.2,-0.21,0.84,1.05
4:11:13,-0.98,0.13,-0.2,-0.14,0.84,1.54
4:11:13,-0.98,0.13,-0.19,-0.14,0.7,1.54
4:11:13,-0.98,0.14,-0.19,0,0.56,1.68
4:11:13,-0.98,0.13,-0.19,-0.21,0.98,1.47
4:11:13,-0.98,0.14,-0.2,-0.63,0.56,1.33
4:11:13,-0.98,0.13,-0.2,-0.63,0.91,1.33
4:11:13,-0.98,0.13,-0.2,-0.77,0.91,1.54
4:11:13,-0.98,0.13,-0.2,-0.84,0.77,1.68
4:11:13,-0.97,0.13,-0.2,-0.84,0.98,1.26
4:11:13,-0.97,0.13,-0.2,-0.63,0.7,1.54
4:11:13,-0.98,0.13,-0.2,-0.07,0.35,1.47
4:11:13,-0.98,0.13,-0.2,0.14,0.42,1.33
4:11:13,-0.98,0.13,-0.2,0.35,0.49,1.75
4:11:13,-0.97,0.13,-0.2,0.7,0.56,1.4
4:11:13,-0.98,0.13,-0.2,1.26,-0.21,2.03
4:11:13,-0.98,0.14,-0.2,1.75,-0.21,1.96
4:11:13,-0.97,0.13,-0.2,2.24,-0.28,1.89
4:11:13,-0.97,0.14,-0.2,2.31,-0.07,1.96
4:11:13,-0.97,0.14,-0.2,2.24,-0.14,2.1
4:11:13,-0.97,0.15,-0.2,2.1,0,2.24
4:11:13,-0.97,0.14,-0.2,1.89,0.14,1.96
4:11:13,-0.97,0.14,-0.2,1.54,0.07,1.89
4:11:13,-0.97,0.14,-0.2,0.98,0.77,2.03
4:11:13,-0.98,0.13,-0.2,0.49,0.77,1.82
4:11:13,-0.98,0.13,-0.19,0.14,0.56,1.33
4:11:13,-0.97,0.14,-0.19,0.14,0.77,1.19
4:11:13,-0.97,0.14,-0.19,-0.07,0.91,1.54
4:11:13,-0.98,0.14,-0.19,-0.42,1.61,1.26
4:11:13,-0.98,0.14,-0.2,-0.42,1.05,0.98
4:11:13,-0.98,0.14,-0.2,-0.21,1.05,0.98
4:11:13,-0.98,0.14,-0.19,0.14,0.84,1.05
4:11:13,-0.98,0.14,-0.19,0.84,0.42,1.47
4:11:13,-0.98,0.13,-0.19,1.05,0,1.82
4:11:13,-0.98,0.13,-0.19,1.19,-0.07,1.61
4:11:13,-0.99,0.13,-0.2,1.4,-0.21,1.96
4:11:13,-0.98,0.13,-0.19,1.54,-0.49,2.17
4:11:13,-0.98,0.13,-0.19,1.96,-0.49,2.31
4:11:13,-0.97,0.14,-0.19,1.96,-0.28,2.66
4:11:13,-0.97,0.13,-0.19,2.31,0.07,2.31
4:11:13,-0.97,0.14,-0.2,2.59,-0.49,2.1
4:11:13,-0.97,0.13,-0.2,3.01,0.07,2.17
4:11:13,-0.97,0.13,-0.2,3.01,-0.14,2.31
4:11:13,-0.97,0.14,-0.2,2.52,0.21,2.1
4:11:13,-0.97,0.14,-0.2,2.45,0.35,1.89
4:11:13,-0.97,0.14,-0.2,2.24,0.14,1.96
4:11:13,-0.98,0.14,-0.19,2.1,0.07,1.75
4:11:13,-0.97,0.14,-0.19,1.96,0.42,1.54
4:11:13,-0.97,0.14,-0.19,2.31,0.28,1.61
4:11:13,-0.97,0.14,-0.19,2.38,0.21,1.68
4:11:13,-0.97,0.15,-0.19,2.03,0.07,1.26
4:11:13,-0.97,0.15,-0.19,2.24,0.42,1.26
4:11:13,-0.97,0.15,-0.19,2.03,0.7,1.54
4:11:13,-0.97,0.15,-0.19,1.89,0,1.75
4:11:13,-0.98,0.15,-0.19,1.82,-0.07,1.33
4:11:13,-0.97,0.14,-0.19,1.96,0,1.4
4:11:13,-0.98,0.14,-0.19,1.61,0.42,1.54
4:11:13,-0.97,0.14,-0.19,1.4,0.77,1.05
4:11:13,-0.98,0.14,-0.19,1.05,0.63,1.4
4:11:13,-0.98,0.15,-0.19,0.7,0.98,1.12
4:11:13,-0.97,0.15,-0.19,0.35,1.12,1.19
4:11:13,-0.98,0.15,-0.19,-0.07,1.26,1.19
4:11:13,-0.98,0.15,-0.19,-0.07,1.26,0.91
4:11:13,-0.98,0.15,-0.19,0.07,0.98,1.68
4:11:13,-0.97,0.14,-0.19,0.35,0.84,1.19
4:11:13,-0.98,0.15,-0.19,0.35,1.05,1.19
4:11:13,-0.98,0.14,-0.19,0.35,0.7,1.47
4:11:13,-0.97,0.14,-0.19,0.21,0.63,1.05
4:11:13,-0.97,0.14,-0.19,0.14,0.77,0.91
4:11:13,-0.98,0.15,-0.2,-0.14,0.84,0.98
4:11:13,-0.97,0.14,-0.2,-0.42,0.98,0.91
4:11:13,-0.97,0.14,-0.19,-0.07,1.05,0.98
4:11:13,-0.98,0.14,-0.19,0,0.91,0.7
4:11:13,-0.98,0.14,-0.19,0,0.98,0.77
4:11:13,-0.98,0.14,-0.19,-0.07,1.12,0.84
4:11:13,-0.97,0.14,-0.19,0.21,1.12,0.98
4:11:13,-0.98,0.14,-0.19,0.07,0.98,1.12
4:11:13,-0.98,0.14,-0.19,0.14,0.7,0.91
4:11:13,-0.97,0.14,-0.19,-0.28,0.63,0.98
4:11:13,-0.97,0.14,-0.2,-0.21,0.98,1.05
4:11:13,-0.97,0.14,-0.19,-0.28,1.61,1.05
4:11:13,-0.98,0.14,-0.2,-0.21,1.54,0.84
4:11:13,-0.98,0.14,-0.19,-0.21,1.47,0.91
4:11:13,-0.98,0.14,-0.2,0,1.54,0.77
4:11:13,-0.98,0.14,-0.19,0.63,1.12,1.61
4:11:13,-0.98,0.14,-0.19,0.77,1.12,1.61
4:11:13,-0.98,0.14,-0.19,0.91,0.63,1.33
4:11:13,-0.98,0.14,-0.2,1.26,0.49,1.19
4:11:13,-0.97,0.14,-0.2,1.26,0.7,1.68
4:11:13,-0.97,0.13,-0.19,1.4,0.63,1.33
4:11:13,-0.97,0.14,-0.19,1.19,0.56,1.19
4:11:13,-0.97,0.14,-0.19,0.63,1.05,1.19
4:11:13,-0.98,0.14,-0.19,0.28,1.19,1.47
4:11:13,-0.98,0.14,-0.2,-0.07,1.82,0.7
4:11:13,-0.98,0.14,-0.19,-0.42,1.61,0.91
4:11:13,-0.98,0.14,-0.19,-0.28,1.19,0.98
4:11:13,-0.97,0.14,-0.2,0,1.33,0.98
4:11:13,-0.97,0.14,-0.2,0.14,1.12,1.19
4:11:13,-0.98,0.14,-0.2,0.07,0.91,1.19
4:11:13,-0.98,0.14,-0.2,0.21,0.77,1.61
4:11:13,-0.98,0.14,-0.2,0.42,0.84,1.82
4:11:13,-0.97,0.14,-0.19,0.63,0.91,1.54
4:11:13,-0.97,0.14,-0.19,0.84,0.49,1.4
4:11:13,-0.98,0.13,-0.19,0.91,0.49,1.54
4:11:13,-0.98,0.13,-0.2,1.26,0.63,1.54
4:11:13,-0.97,0.13,-0.2,1.05,0.77,1.4
4:11:13,-0.97,0.13,-0.2,0.84,0.84,0.98
4:11:13,-0.97,0.13,-0.2,0.77,1.05,1.61
4:11:13,-0.98,0.14,-0.2,0.56,1.19,1.26
4:11:13,-0.97,0.14,-0.2,0.77,0.91,1.12
4:11:13,-0.97,0.14,-0.19,1.12,1.33,1.4
4:11:13,-0.97,0.14,-0.19,1.33,1.33,1.68
4:11:13,-0.97,0.14,-0.19,1.54,0.63,1.4
4:11:13,-0.98,0.14,-0.2,1.33,0.63,1.26
4:11:13,-0.98,0.15,-0.2,1.47,0.28,1.82
4:11:13,-0.97,0.14,-0.2,1.47,0.84,1.47
4:11:13,-0.97,0.14,-0.2,1.61,0.42,2.03
4:11:13,-0.97,0.14,-0.2,1.47,0.63,1.75
4:11:13,-0.98,0.14,-0.2,1.47,0.63,1.75
4:11:13,-0.97,0.14,-0.2,1.4,0.56,1.89
4:11:13,-0.97,0.14,-0.2,1.05,0.77,1.54
4:11:13,-0.97,0.14,-0.2,0.63,0.91,1.54
4:11:13,-0.98,0.15,-0.2,0.07,1.26,1.47
4:11:13,-0.97,0.14,-0.19,-0.21,1.12,1.47
4:11:13,-0.97,0.14,-0.19,-0.28,1.05,1.54
4:11:13,-0.98,0.14,-0.19,-0.7,1.05,1.33
4:11:13,-0.98,0.14,-0.19,-0.63,1.26,1.19
4:11:13,-0.98,0.14,-0.19,-0.63,1.54,1.19
4:11:13,-0.98,0.14,-0.19,-0.21,0.77,1.47
4:11:13,-0.98,0.15,-0.19,0.28,0.63,1.26
4:11:13,-0.98,0.15,-0.19,0.28,0.77,1.47
4:11:13,-0.98,0.14,-0.19,0.35,0.84,1.61
4:11:13,-0.98,0.14,-0.2,0.56,0.7,1.4
4:11:13,-0.98,0.14,-0.2,0.98,0.49,1.68
4:11:13,-0.98,0.14,-0.2,1.12,0.35,1.61
4:11:13,-0.97,0.14,-0.2,1.19,-0.07,1.82
4:11:13,-0.97,0.14,-0.2,0.98,0.49,1.26
4:11:13,-0.97,0.14,-0.2,0.77,0.49,1.47
4:11:13,-0.97,0.14,-0.2,0.63,0.49,1.47
4:11:13,-0.97,0.14,-0.2,0.63,0.56,1.19
4:11:13,-0.97,0.14,-0.2,0.35,0.7,1.54
4:11:13,-0.97,0.14,-0.19,0.21,0.63,1.19
4:11:13,-0.97,0.14,-0.19,0.35,0.77,1.4
4:11:13,-0.97,0.15,-0.2,0.28,0.98,1.75
4:11:13,-0.97,0.15,-0.19,0.21,0.77,1.26
4:11:13,-0.97,0.15,-0.2,0.07,0.84,1.54
4:11:13,-0.97,0.15,-0.19,0.07,0.91,1.33
4:11:13,-0.97,0.15,-0.2,0.07,0.7,1.4
4:11:13,-0.97,0.15,-0.2,0.14,0.77,1.68
4:11:13,-0.98,0.15,-0.2,0.14,0.21,1.47
4:11:13,-0.98,0.14,-0.19,0.07,0.42,1.75
4:11:13,-0.98,0.14,-0.19,0.14,0.35,1.54
4:11:13,-0.98,0.13,-0.19,0.35,0.56,1.54
4:11:13,-0.98,0.14,-0.19,0.21,0.56,1.61
4:11:13,-0.97,0.14,-0.19,-0.07,0.7,1.47
4:11:13,-0.97,0.14,-0.19,-0.42,0.7,1.54
4:11:13,-0.98,0.15,-0.19,-0.49,0.56,1.33
4:11:13,-0.98,0.15,-0.19,-0.56,0.7,1.47
4:11:13,-0.97,0.15,-0.19,-0.56,0.91,1.19
4:11:13,-0.97,0.15,-0.19,-0.49,0.98,1.12
4:11:13,-0.98,0.14,-0.2,-0.28,0.84,1.61
4:11:13,-0.97,0.14,-0.19,-0.21,0.14,1.54
4:11:13,-0.97,0.14,-0.19,-0.35,0.91,1.54
4:11:13,-0.97,0.15,-0.19,-0.14,0.14,1.4
4:11:13,-0.98,0.14,-0.19,0,0.35,1.47
4:11:13,-0.97,0.15,-0.19,0.7,0.35,1.75
4:11:13,-0.97,0.14,-0.19,1.26,0.42,1.61
4:11:13,-0.97,0.14,-0.19,1.54,0.28,1.68
4:11:13,-0.98,0.14,-0.19,1.47,0.49,1.82
4:11:13,-0.97,0.14,-0.2,1.19,0.63,1.61
4:11:13,-0.98,0.15,-0.19,0.98,0.49,1.54
4:11:13,-0.98,0.14,-0.19,0.84,0.7,1.61
4:11:13,-0.98,0.14,-0.19,0.77,0.63,1.68
4:11:13,-0.98,0.14,-0.19,0.91,0.49,1.54
4:11:13,-0.98,0.15,-0.19,1.05,0.77,1.82
4:11:13,-0.98,0.15,-0.19,1.05,0.56,1.96
4:11:13,-0.98,0.15,-0.19,1.05,0.63,1.68
4:11:13,-0.98,0.15,-0.19,1.26,0.63,1.54
4:11:13,-0.97,0.15,-0.19,1.47,0.21,1.82
4:11:13,-0.97,0.15,-0.19,1.33,0.35,1.4
4:11:13,-0.97,0.15,-0.2,1.19,0.28,1.68
4:11:13,-0.97,0.15,-0.2,0.98,0.42,1.4
4:11:13,-0.97,0.15,-0.2,0.91,0.42,1.4
4:11:13,-0.97,0.15,-0.2,0.91,0.56,1.54
4:11:13,-0.97,0.15,-0.19,0.91,0.56,1.33
4:11:13,-0.98,0.14,-0.19,0.63,0.7,1.54
4:11:13,-0.98,0.14,-0.19,0.49,0.56,1.61
4:11:13,-0.97,0.14,-0.19,0.49,0.84,1.68
4:11:13,-0.98,0.14,-0.19,0.63,0.49,1.82
4:11:13,-0.98,0.14,-0.19,0.56,1.05,1.54
4:11:13,-0.98,0.14,-0.19,0.84,0.84,1.96
4:11:13,-0.98,0.15,-0.19,1.05,0.7,1.89
4:11:13,-0.98,0.15,-0.19,1.47,0.56,2.52
4:11:13,-0.98,0.15,-0.19,1.82,0.63,2.31
4:11:13,-0.98,0.15,-0.19,2.38,0.14,2.52
4:11:13,-0.98,0.15,-0.19,2.52,-0.14,2.8
4:11:13,-0.98,0.14,-0.19,2.45,-0.21,2.24
4:11:13,-0.97,0.14,-0.19,2.45,-0.28,2.66
4:11:13,-0.97,0.14,-0.19,2.31,0.28,2.03
4:11:13,-0.97,0.15,-0.19,2.31,0,2.17
4:11:13,-0.97,0.15,-0.2,1.96,0.35,2.38
4:11:13,-0.97,0.15,-0.2,1.75,0.63,2.1
4:11:13,-0.97,0.15,-0.19,1.68,0.84,2.1
4:11:13,-0.98,0.15,-0.19,1.68,0.21,2.24
4:11:13,-0.97,0.15,-0.19,1.54,0.49,1.89
4:11:13,-0.97,0.15,-0.19,1.61,0.35,1.82
4:11:13,-0.98,0.15,-0.19,1.61,0.42,1.82
4:11:13,-0.98,0.15,-0.19,1.54,0.42,1.82
4:11:13,-0.97,0.15,-0.19,1.54,0.63,1.82
4:11:13,-0.97,0.15,-0.19,1.75,0.56,2.03
4:11:13,-0.97,0.16,-0.19,1.68,0.49,1.89
4:11:13,-0.97,0.16,-0.19,1.61,0.63,1.75
4:11:13,-0.97,0.16,-0.19,1.54,0.49,1.75
4:11:13,-0.97,0.16,-0.2,1.75,0.42,1.75
4:11:13,-0.97,0.16,-0.2,1.61,0.35,1.54
4:11:13,-0.97,0.15,-0.2,1.4,0.56,1.82
4:11:13,-0.97,0.15,-0.19,1.05,0.56,1.68
4:11:13,-0.98,0.15,-0.19,0.7,0.42,1.47
4:11:13,-0.97,0.15,-0.19,0.63,0.28,1.33
4:11:13,-0.97,0.15,-0.19,0.63,0.56,1.96
4:11:13,-0.97,0.15,-0.19,0.77,0.63,1.61
4:11:13,-0.97,0.15,-0.19,0.77,0.7,1.75
4:11:13,-0.97,0.15,-0.19,0.7,0.91,1.54
4:11:13,-0.97,0.15,-0.19,0.56,0.56,1.12
4:11:13,-0.97,0.15,-0.19,0.49,0.56,1.54
4:11:13,-0.97,0.15,-0.19,0.28,1.61,1.33
4:11:13,-0.97,0.15,-0.19,0.28,1.12,1.33
4:11:13,-0.98,0.15,-0.19,0,1.05,1.19
4:11:13,-0.97,0.16,-0.19,-0.07,0.91,1.33
4:11:13,-0.97,0.16,-0.19,0.28,0.91,1.75
4:11:13,-0.97,0.16,-0.19,0.49,0.98,1.33
4:11:13,-0.98,0.16,-0.2,0.49,0.63,1.26
4:11:13,-0.97,0.15,-0.19,0.77,0.21,1.19
4:11:13,-0.97,0.15,-0.19,0.63,0.35,1.54
4:11:13,-0.97,0.15,-0.19,0.63,0.35,1.33
4:11:13,-0.97,0.15,-0.19,0.63,0.56,1.26
4:11:13,-0.97,0.15,-0.19,0.49,0.56,1.05
4:11:13,-0.97,0.15,-0.19,0.14,0.98,1.05
4:11:13,-0.97,0.15,-0.19,-0.14,0.77,0.77
4:11:13,-0.97,0.15,-0.19,0,1.26,1.26
4:11:13,-0.97,0.16,-0.19,0.07,1.12,1.05
4:11:13,-0.97,0.16,-0.19,-0.14,1.26,0.98
4:11:13,-0.97,0.16,-0.19,0,0.84,1.05
4:11:13,-0.97,0.15,-0.19,0.14,0.84,1.12
4:11:13,-0.97,0.15,-0.19,0.21,0.77,1.33
4:11:13,-0.97,0.15,-0.19,0.35,0.91,1.26
4:11:13,-0.98,0.15,-0.19,0.21,0.84,0.98
4:11:13,-0.98,0.15,-0.19,-0.14,0.7,1.05
4:11:13,-0.98,0.15,-0.19,-0.14,0.98,1.05
4:11:13,-0.98,0.15,-0.19,0.07,0.77,0.91
4:11:13,-0.97,0.15,-0.19,0.07,0.91,0.63
4:11:13,-0.98,0.15,-0.19,-0.28,0.7,0.49
4:11:13,-0.98,0.15,-0.19,-0.49,0.7,0.42
4:11:13,-0.98,0.15,-0.19,-0.42,0.77,0.63
4:11:13,-0.97,0.16,-0.19,-0.28,0.98,0.91
4:11:13,-0.97,0.16,-0.19,-0.28,1.12,0.7
4:11:13,-0.98,0.16,-0.19,-0.42,0.77,0.7
4:11:13,-0.97,0.16,-0.19,-0.35,0.7,0.98
4:11:13,-0.97,0.16,-0.19,-0.14,0.42,0.84
4:11:13,-0.97,0.16,-0.19,-0.21,0.42,0.84
4:11:13,-0.97,0.15,-0.19,-0.28,0.49,0.98
4:11:13,-0.97,0.16,-0.2,-0.7,1.05,0.7
4:11:13,-0.97,0.16,-0.2,-1.12,1.12,0.91
4:11:13,-0.97,0.16,-0.19,-1.61,1.26,0.56
4:11:13,-0.97,0.15,-0.19,-1.89,1.61,0.77
4:11:13,-0.97,0.16,-0.19,-2.03,1.54,0.28
4:11:13,-0.97,0.16,-0.19,-2.38,1.54,0.35
4:11:13,-0.97,0.15,-0.19,-2.45,1.61,0.28
4:11:13,-0.97,0.15,-0.19,-2.52,1.96,-0.07
4:11:13,-0.98,0.15,-0.19,-2.45,1.54,0.28
4:11:13,-0.98,0.15,-0.19,-2.45,1.75,-0.21
4:11:13,-0.97,0.15,-0.19,-2.1,1.4,-0.07
4:11:13,-0.97,0.15,-0.19,-1.68,1.05,0.07
4:11:13,-0.97,0.15,-0.19,-1.05,0.77,0
4:11:13,-0.97,0.15,-0.19,-0.98,0.77,0
4:11:13,-0.98,0.15,-0.19,-1.4,0.98,-0.28
4:11:13,-0.98,0.15,-0.19,-1.61,1.05,-0.21
4:11:13,-0.97,0.15,-0.19,-1.54,1.4,-0.49
4:11:13,-0.97,0.15,-0.19,-1.4,0.91,-0.14
4:11:13,-0.98,0.15,-0.19,-1.4,0.77,0.42
4:11:13,-0.97,0.15,-0.19,-1.54,1.05,0
4:11:13,-0.98,0.15,-0.19,-1.68,0.91,0.28
4:11:13,-0.98,0.15,-0.19,-1.82,0.77,0.21
4:11:13,-0.97,0.16,-0.19,-2.03,1.26,0.21
4:11:13,-0.97,0.16,-0.19,-2.03,1.12,0.42
4:11:13,-0.97,0.16,-0.19,-2.03,1.4,0.56
4:11:13,-0.97,0.16,-0.19,-2.17,1.4,0.49
4:11:13,-0.98,0.16,-0.19,-2.45,1.68,0.42
4:11:13,-0.98,0.15,-0.19,-2.38,1.33,0.7
4:11:13,-0.98,0.15,-0.19,-2.52,1.19,0.42
4:11:13,-0.97,0.15,-0.19,-2.52,1.33,0.49
4:11:13,-0.97,0.15,-0.19,-2.59,1.96,0.49
4:11:13,-0.97,0.15,-0.19,-2.66,1.33,0.14
4:11:13,-0.98,0.15,-0.19,-2.52,1.54,0.21
4:11:13,-0.98,0.15,-0.19,-2.31,1.33,0.21
4:11:13,-0.98,0.15,-0.19,-2.03,1.33,0.35
4:11:13,-0.97,0.15,-0.19,-1.54,1.19,0.28
4:11:13,-0.97,0.14,-0.19,-1.12,0.91,0.35
4:11:13,-0.97,0.15,-0.19,-1.12,0.98,0.14
4:11:13,-0.97,0.15,-0.19,-1.61,1.4,0.07
4:11:13,-0.97,0.16,-0.19,-2.1,1.54,-0.07
4:11:13,-0.98,0.15,-0.19,-1.96,1.47,-0.07
4:11:13,-0.98,0.15,-0.19,-1.68,1.4,-0.14
4:11:13,-0.98,0.15,-0.19,-1.26,1.4,0.42
4:11:13,-0.97,0.15,-0.19,-1.19,1.26,0.35
4:11:13,-0.98,0.15,-0.19,-1.4,1.68,-0.35
4:11:13,-0.98,0.15,-0.19,-1.4,1.33,0.28
4:11:13,-0.98,0.15,-0.19,-1.12,1.54,0.63
4:11:13,-0.97,0.15,-0.19,-0.77,1.47,0.7
4:11:13,-0.98,0.15,-0.19,-0.49,1.19,0.91
4:11:13,-0.98,0.15,-0.19,-0.56,1.19,0.77
4:11:13,-0.98,0.15,-0.19,-0.91,1.4,0.91
4:11:13,-0.98,0.15,-0.19,-1.19,1.26,0.84
4:11:13,-0.98,0.15,-0.19,-1.26,1.12,0.49
4:11:13,-0.98,0.15,-0.19,-1.26,1.26,1.33
4:11:13,-0.97,0.15,-0.19,-1.33,1.05,0.77
4:11:13,-0.97,0.15,-0.19,-1.4,0.7,0.7
4:11:13,-0.97,0.14,-0.19,-1.4,0.98,0.56
4:11:13,-0.97,0.14,-0.19,-1.12,1.19,0.7
4:11:13,-0.97,0.14,-0.19,-0.77,1.05,0.98
4:11:13,-0.97,0.15,-0.19,-0.7,1.12,0.56
4:11:13,-0.97,0.15,-0.2,-0.7,0.98,0.49
4:11:13,-0.97,0.15,-0.19,-1.12,1.26,0.28
4:11:13,-0.97,0.15,-0.19,-1.26,1.47,0.35
4:11:13,-0.97,0.15,-0.19,-1.4,1.61,0.35
4:11:13,-0.97,0.15,-0.19,-1.12,1.33,0
4:11:13,-0.97,0.15,-0.19,-1.05,1.47,0.14
4:11:13,-0.98,0.14,-0.19,-0.84,1.05,0.35
4:11:13,-0.98,0.15,-0.19,-0.49,0.98,0.42
4:11:13,-0.97,0.15,-0.19,-0.07,1.19,0.56
4:11:13,-0.97,0.15,-0.19,0.35,0.7,0.84
4:11:13,-0.98,0.15,-0.19,0.07,0.63,0.28
4:11:13,-0.97,0.15,-0.19,-0.21,1.12,0.77
4:11:13,-0.97,0.15,-0.19,-0.35,1.19,0.49
4:11:13,-0.97,0.15,-0.19,-0.84,1.26,0.35
4:11:13,-0.97,0.15,-0.19,-0.84,1.33,0.49
4:11:13,-0.97,0.15,-0.19,-0.84,1.4,0.84
4:11:13,-0.97,0.15,-0.19,-0.56,1.12,0.77
4:11:13,-0.98,0.15,-0.19,-0.56,1.4,0.77
4:11:13,-0.98,0.15,-0.19,-0.77,1.05,0.91
4:11:13,-0.98,0.15,-0.19,-0.91,1.12,0.77
4:11:13,-0.97,0.15,-0.19,-0.91,1.54,0.42
4:11:13,-0.97,0.15,-0.2,-1.05,1.05,0.56
4:11:13,-0.97,0.15,-0.2,-1.05,1.4,0.98
4:11:13,-0.97,0.15,-0.2,-0.91,1.4,0.49
4:11:13,-0.97,0.15,-0.2,-0.77,1.54,0.98
4:11:13,-0.97,0.15,-0.2,-0.77,1.68,1.05
4:11:13,-0.97,0.15,-0.2,-0.91,1.82,0.63
4:11:13,-0.97,0.14,-0.2,-1.12,1.82,0.21
4:11:13,-0.98,0.14,-0.2,-1.47,1.82,0.35
4:11:13,-0.98,0.14,-0.2,-1.33,1.4,0.14
4:11:13,-0.98,0.14,-0.19,-1.19,1.05,0.28
4:11:13,-0.97,0.14,-0.2,-0.84,1.26,0.49
4:11:13,-0.97,0.14,-0.2,-0.63,0.98,0.49
4:11:13,-0.98,0.14,-0.2,-0.21,1.26,0.84
4:11:13,-0.97,0.14,-0.2,-0.56,1.82,0.42
4:11:13,-0.97,0.14,-0.2,-0.56,1.68,0.49
4:11:13,-0.97,0.14,-0.2,-0.35,1.68,0.77
4:11:13,-0.97,0.15,-0.2,-0.07,1.26,0.84
4:11:13,-0.97,0.15,-0.2,0.35,1.33,0.91
4:11:13,-0.98,0.15,-0.2,0.49,0.77,1.26
4:11:13,-0.98,0.15,-0.2,0.7,0.63,0.98
4:11:13,-0.97,0.15,-0.19,0.7,0.7,1.12
4:11:13,-0.97,0.15,-0.2,0.7,0.91,1.05
4:11:13,-0.97,0.14,-0.2,0.63,0.63,1.26
4:11:13,-0.97,0.15,-0.2,0.56,0.63,1.61
4:11:13,-0.98,0.15,-0.2,0.28,1.05,1.4
4:11:13,-0.98,0.14,-0.2,-0.07,0.84,1.26
4:11:13,-0.98,0.14,-0.2,-0.21,1.05,1.4
4:11:13,-0.97,0.14,-0.2,-0.21,1.05,1.33
4:11:13,-0.97,0.14,-0.2,-0.49,0.91,1.33
4:11:13,-0.98,0.14,-0.2,-0.63,1.05,1.19
4:11:13,-0.98,0.14,-0.2,-0.49,0.91,1.26
4:11:13,-0.98,0.14,-0.2,-0.35,1.19,1.33
4:11:13,-0.97,0.14,-0.2,-0.21,1.26,1.4
4:11:13,-0.97,0.14,-0.2,0,1.05,1.61
4:11:13,-0.97,0.15,-0.2,0.21,0.98,1.47
4:11:13,-0.98,0.15,-0.2,0,0.42,1.33
4:11:13,-0.98,0.14,-0.2,0.07,0.49,1.4
4:11:13,-0.97,0.14,-0.2,0.35,0.56,1.61
4:11:13,-0.97,0.14,-0.2,0.56,0.49,1.68
4:11:13,-0.97,0.14,-0.2,0.98,0.21,1.47
4:11:13,-0.98,0.14,-0.2,1.05,0.21,1.61
4:11:13,-0.98,0.14,-0.2,0.91,0.35,1.47
4:11:13,-0.97,0.14,-0.2,0.77,0.28,1.33
4:11:13,-0.97,0.14,-0.2,0.98,0.28,1.47
4:11:13,-0.97,0.14,-0.2,1.12,0.42,1.26
4:11:13,-0.97,0.15,-0.2,1.19,0.21,1.33
4:11:13,-0.97,0.15,-0.2,1.26,0.49,1.54
4:11:13,-0.97,0.15,-0.2,1.4,0.56,1.61
4:11:13,-0.98,0.15,-0.2,1.4,0.35,1.54
4:11:13,-0.98,0.15,-0.19,1.4,0.49,1.54
4:11:13,-0.97,0.15,-0.19,1.4,0.21,1.4
4:11:13,-0.97,0.15,-0.2,1.47,0.07,1.54
4:11:13,-0.97,0.15,-0.19,1.26,0.21,1.19
4:11:13,-0.97,0.15,-0.2,1.12,0.35,1.4
4:11:13,-0.98,0.15,-0.2,1.12,0.14,1.61
4:11:13,-0.98,0.15,-0.2,1.12,0.21,1.26
4:11:13,-0.97,0.15,-0.2,1.12,0.42,1.19
4:11:13,-0.97,0.15,-0.2,1.12,0.49,1.4
4:11:13,-0.97,0.15,-0.2,1.12,0.28,1.26
4:11:13,-0.97,0.15,-0.19,0.91,0.91,1.26
4:11:13,-0.97,0.15,-0.2,0.7,0.7,1.05
4:11:13,-0.97,0.15,-0.2,0.56,1.05,1.12
4:11:13,-0.97,0.16,-0.19,0.49,0.91,1.12
4:11:13,-0.97,0.16,-0.19,0.63,0.63,1.33
4:11:13,-0.98,0.16,-0.19,0.21,0.77,0.91
4:11:13,-0.98,0.15,-0.19,0.14,0.56,0.98
4:11:13,-0.98,0.15,-0.19,-0.14,0.42,0.84
4:11:13,-0.98,0.15,-0.19,-0.14,0.21,1.19
4:11:13,-0.97,0.15,-0.19,0,0.42,1.19
4:11:13,-0.97,0.15,-0.2,0.07,0.35,0.98
4:11:13,-0.97,0.15,-0.2,-0.21,0.63,1.05
4:11:13,-0.98,0.16,-0.2,-0.7,0.77,1.12
4:11:13,-0.97,0.15,-0.2,-0.91,0.98,0.98
4:11:13,-0.97,0.15,-0.19,-0.84,0.42,1.19
4:11:13,-0.97,0.15,-0.19,-0.49,0.63,1.05
4:11:13,-0.98,0.16,-0.19,-0.63,0.63,1.05
4:11:13,-0.98,0.15,-0.19,-0.7,0.84,0.98
4:11:13,-0.98,0.15,-0.19,-0.56,0.63,1.12
4:11:13,-0.98,0.15,-0.2,-0.56,0.56,1.12
4:11:13,-0.98,0.15,-0.2,-0.7,0.77,0.91
4:11:13,-0.97,0.15,-0.19,-0.49,0.84,1.47
4:11:13,-0.97,0.14,-0.19,-0.14,0.56,1.33
4:11:13,-0.98,0.15,-0.19,0,0.7,1.47
4:11:13,-0.97,0.15,-0.19,-0.14,0.7,1.4
4:11:13,-0.98,0.15,-0.19,-0.35,0.49,1.19
4:11:13,-0.98,0.15,-0.19,-0.42,0.7,1.26
4:11:13,-0.98,0.15,-0.19,-0.49,0.77,1.26
4:11:13,-0.98,0.15,-0.19,-0.56,0.7,1.4
4:11:13,-0.97,0.15,-0.19,0,0.28,1.4
4:11:13,-0.97,0.15,-0.19,0.21,0.49,1.19
4:11:13,-0.98,0.15,-0.19,0.35,0.28,1.47
4:11:13,-0.97,0.15,-0.19,0.28,0.21,1.19
4:11:13,-0.97,0.15,-0.2,0.42,0.21,1.12
4:11:13,-0.97,0.15,-0.19,0.35,0.28,1.12
4:11:13,-0.97,0.15,-0.19,0.35,0.56,1.61
4:11:13,-0.97,0.15,-0.19,0.14,0.07,0.91
4:11:13,-0.98,0.15,-0.19,0.07,0.35,1.26
4:11:13,-0.97,0.15,-0.19,-0.07,0.49,1.26
4:11:13,-0.98,0.15,-0.19,0,0.49,1.05
4:11:13,-0.97,0.15,-0.19,-0.07,0.28,1.12
4:11:13,-0.98,0.15,-0.19,0,0.28,1.26
4:11:13,-0.98,0.15,-0.19,-0.28,0.63,1.33
4:11:13,-0.98,0.15,-0.19,0.07,0.42,1.33
4:11:13,-0.98,0.15,-0.19,0.42,0.35,1.4
4:11:13,-0.97,0.15,-0.19,0.49,0.21,1.33
4:11:13,-0.97,0.16,-0.19,0.7,0,1.89
4:11:13,-0.97,0.16,-0.19,0.63,0.07,1.26
4:11:13,-0.97,0.15,-0.19,0.63,0,1.4
4:11:13,-0.97,0.15,-0.19,0.77,0.07,1.82
4:11:13,-0.97,0.15,-0.2,0.84,0,1.89
4:11:13,-0.97,0.15,-0.19,0.49,0.28,1.68
4:11:13,-0.97,0.15,-0.19,0.28,0.56,1.61
4:11:13,-0.97,0.15,-0.19,0.14,0.14,1.75
4:11:13,-0.98,0.15,-0.19,-0.14,0.42,1.47
4:11:13,-0.98,0.15,-0.19,-0.14,0.35,1.26
4:11:13,-0.97,0.15,-0.19,0.07,0.49,1.54
4:11:13,-0.97,0.15,-0.19,0.14,0.42,1.54
4:11:13,-0.97,0.15,-0.19,0.28,0.49,1.19
4:11:13,-0.97,0.15,-0.19,0.21,0.49,1.47
4:11:13,-0.97,0.16,-0.19,0,0.21,1.19
4:11:13,-0.97,0.16,-0.19,0.07,0.49,0.35
4:11:13,-0.98,0.16,-0.19,-0.07,0.77,0.84
4:11:13,-0.98,0.16,-0.19,0.07,0.21,1.19
4:11:13,-0.98,0.16,-0.19,0.14,0.49,0.91
4:11:13,-0.98,0.15,-0.19,0.07,0.14,1.12
4:11:13,-0.98,0.16,-0.19,0.14,-0.35,0.84
4:11:13,-0.97,0.15,-0.19,0.49,0.07,1.12
4:11:13,-0.97,0.15,-0.19,0.35,-0.21,1.96
4:11:13,-0.97,0.16,-0.19,0.49,0,1.19
4:11:13,-0.97,0.15,-0.19,1.19,0.14,1.4
4:11:13,-0.97,0.15,-0.19,0.7,0.56,1.4
4:11:13,-0.98,0.15,-0.19,0.07,0.77,1.33
4:11:13,-0.97,0.15,-0.19,-0.14,0.77,0.91
4:11:13,-0.97,0.15,-0.19,-0.35,0.77,0.49
4:11:13,-0.97,0.15,-0.19,-0.56,0.77,0.7
4:11:13,-0.97,0.15,-0.19,-0.21,1.12,1.05
4:11:13,-0.97,0.15,-0.19,0.21,0.77,0.77
4:11:13,-0.98,0.15,-0.19,0.28,0.98,1.05
4:11:13,-0.97,0.15,-0.18,0.49,0.77,1.12
4:11:13,-0.98,0.15,-0.18,0.77,0.77,1.26
4:11:13,-0.98,0.15,-0.18,0.91,0.42,1.54
4:11:13,-0.98,0.15,-0.19,1.12,0,1.47
4:11:13,-0.98,0.15,-0.19,1.75,-0.77,1.19
4:11:13,-0.97,0.15,-0.19,1.89,0.35,1.26
4:11:13,-0.97,0.15,-0.19,1.75,0.49,2.1
4:11:13,-0.98,0.15,-0.19,1.96,-0.07,1.89
4:11:13,-0.98,0.15,-0.19,1.82,0.21,1.89
4:11:13,-0.98,0.15,-0.19,1.47,0.42,1.61
4:11:13,-0.98,0.15,-0.19,1.12,0.49,1.61
4:11:13,-0.98,0.15,-0.19,0.98,0.14,1.96
4:11:13,-0.98,0.16,-0.19,0.42,0.42,1.82
4:11:13,-0.98,0.16,-0.19,-0.35,0.35,1.19
4:11:13,-0.97,0.15,-0.19,-0.49,0.63,0.84
4:11:13,-0.97,0.15,-0.18,-0.28,0.56,1.61
4:11:13,-0.97,0.15,-0.19,-0.28,0.63,1.68
4:11:13,-0.98,0.16,-0.19,-0.21,0.14,1.4
4:11:13,-0.98,0.16,-0.19,-0.28,0.42,1.33
4:11:13,-0.97,0.16,-0.19,-0.07,0.84,1.4
4:11:13,-0.97,0.16,-0.19,0.14,0.42,1.54
4:11:13,-0.97,0.15,-0.19,0.56,0.56,1.61
4:11:13,-0.97,0.16,-0.18,0.42,0.7,1.4
4:11:13,-0.98,0.16,-0.19,0.49,0.07,1.26
4:11:13,-0.97,0.15,-0.18,1.05,0,1.47
4:11:13,-0.98,0.16,-0.18,1.05,0.21,1.4
4:11:13,-0.97,0.16,-0.18,0.63,0.35,1.19
4:11:13,-0.98,0.16,-0.19,0.07,0.42,1.68
4:11:13,-0.97,0.17,-0.19,-0.28,0.42,1.12
4:11:13,-0.97,0.16,-0.19,-0.14,-17.92,1.19
4:11:13,-0.97,0.17,-0.19,-0.07,0.07,0.56
4:11:13,-0.97,0.16,-0.19,0.14,0.56,1.05
4:11:13,-0.97,0.16,-0.2,-0.56,0.77,0.63
4:11:13,-0.97,0.16,-0.19,-1.26,0.77,0.56
4:11:13,-0.97,0.15,-0.19,-1.54,0.98,0.77
4:11:13,-0.97,0.15,-0.18,-2.1,1.05,0.7
4:11:13,-0.98,0.16,-0.18,-2.87,1.05,0.28
4:11:13,-0.98,0.15,-0.18,-2.8,1.4,-0.21
4:11:13,-0.97,0.15,-0.18,-2.87,1.89,0
4:11:13,-0.98,0.16,-0.18,-2.94,1.75,0.42
4:11:13,-0.97,0.16,-0.19,-2.31,1.19,0.56
4:11:13,-0.97,0.16,-0.19,-0.98,0.91,0.7
4:11:13,-0.98,0.16,-0.19,-0.56,0.91,0.91
4:11:13,-0.98,0.15,-0.18,-0.63,1.05,0.77
4:11:13,-0.97,0.15,-0.18,-0.77,0.84,0.42
4:11:13,-0.97,0.15,-0.19,-0.35,0.84,0.84
4:11:13,-0.97,0.15,-0.19,-0.56,0.63,0.63
4:11:13,-0.98,0.15,-0.19,-0.35,0.49,0.7
4:11:13,-0.97,0.16,-0.19,-0.56,0.7,0.56
4:11:13,-0.97,0.15,-0.18,-0.49,1.12,0.56
4:11:13,-0.98,0.15,-0.19,-0.42,1.19,0.84
4:11:13,-0.98,0.15,-0.19,-0.56,0.84,0.35
4:11:13,-0.97,0.15,-0.19,-0.14,0.77,0.35
4:11:13,-0.97,0.15,-0.19,0.07,0.91,0.91
4:11:13,-0.98,0.16,-0.19,-0.42,1.12,0.42
4:11:13,-0.98,0.16,-0.19,-1.12,1.19,0.49
4:11:13,-0.97,0.16,-0.19,-0.91,0.84,0.7
4:11:13,-0.97,0.16,-0.19,-0.63,0.98,0.56
4:11:13,-0.98,0.15,-0.18,-0.42,0.98,0.7
4:11:13,-0.98,0.15,-0.18,-0.21,1.05,1.12
4:11:13,-0.98,0.15,-0.18,-0.28,1.26,0.84
4:11:13,-0.98,0.15,-0.19,0,1.12,1.4
4:11:13,-0.98,0.15,-0.18,0.42,0.49,1.33
4:11:13,-0.98,0.15,-0.18,0.77,0.42,1.61
4:11:13,-0.97,0.15,-0.19,0.84,0.56,1.26
4:11:13,-0.97,0.15,-0.19,0.56,0.56,1.19
4:11:13,-0.97,0.15,-0.19,0.56,0.77,1.47
4:11:13,-0.98,0.16,-0.19,0.28,0.42,1.12
4:11:13,-0.97,0.16,-0.19,-0.07,0.91,0.49
4:11:13,-0.97,0.15,-0.19,-0.35,0.77,0.7
4:11:13,-0.97,0.15,-0.19,-0.63,0.7,0.35
4:11:13,-0.97,0.15,-0.18,-0.77,0.84,0.21
4:11:13,-0.97,0.15,-0.19,-0.98,1.19,-0.14
4:11:13,-0.97,0.16,-0.18,-0.98,1.4,0
4:11:13,-0.97,0.16,-0.19,-0.84,1.33,0.14
4:11:13,-0.97,0.16,-0.18,-0.28,1.4,0.14
4:11:13,-0.97,0.16,-0.19,0.14,1.33,0.56
4:11:13,-0.97,0.16,-0.18,0.42,1.19,0.7
4:11:13,-0.98,0.16,-0.19,0.7,1.33,0.84
4:11:13,-0.98,0.15,-0.18,0.42,1.26,0.7
4:11:13,-0.98,0.15,-0.18,0.21,0.98,0.7
4:11:13,-0.98,0.15,-0.18,0.28,0.84,0.77
4:11:13,-0.98,0.15,-0.18,0.49,1.19,0.7
4:11:13,-0.98,0.15,-0.19,0.63,1.4,0.77
4:11:13,-0.97,0.15,-0.19,0.56,1.05,0.7
4:11:13,-0.97,0.15,-0.19,0.42,1.47,0.7
4:11:13,-0.97,0.16,-0.19,0.35,1.47,0.91
4:11:13,-0.97,0.16,-0.19,0.14,1.47,0.7
4:11:13,-0.98,0.16,-0.19,0.07,1.4,0.63
4:11:13,-0.98,0.16,-0.19,-0.07,1.68,0.84
4:11:13,-0.98,0.15,-0.18,-0.07,1.4,0.91
4:11:13,-0.98,0.15,-0.19,0.07,1.47,0.77
4:11:13,-0.98,0.15,-0.19,0.14,1.05,0.91
4:11:13,-0.98,0.15,-0.19,0.42,1.19,1.12
4:11:13,-0.98,0.15,-0.18,0.49,0.77,1.26
4:11:13,-0.98,0.15,-0.18,0.56,1.12,1.12
4:11:13,-0.98,0.15,-0.19,0.84,0.98,1.54
4:11:13,-0.97,0.15,-0.19,1.05,0.84,1.19
4:11:13,-0.97,0.15,-0.19,1.05,0.7,1.05
4:11:13,-0.97,0.15,-0.19,0.98,0.63,1.26
4:11:13,-0.98,0.14,-0.19,0.91,0.7,0.91
4:11:13,-0.97,0.15,-0.19,1.05,0.35,1.05
4:11:13,-0.97,0.15,-0.19,1.05,0.42,0.98
4:11:13,-0.97,0.15,-0.19,1.05,0.63,0.84
4:11:13,-0.97,0.15,-0.19,1.33,0.42,0.98
4:11:13,-0.98,0.15,-0.19,1.54,0.63,0.63
4:11:13,-0.97,0.15,-0.19,1.47,0.77,0.63
4:11:13,-0.97,0.15,-0.19,1.4,0.77,0.77
4:11:13,-0.97,0.15,-0.19,1.68,0.56,0.63
4:11:13,-0.97,0.16,-0.19,1.75,0.63,0.56
4:11:13,-0.98,0.16,-0.19,1.89,0.49,0.42
4:11:13,-0.97,0.16,-0.19,1.96,0.56,0.56
4:11:13,-0.98,0.15,-0.19,1.96,1.26,1.05
4:11:13,-0.97,0.15,-0.19,1.89,0.42,0.7
4:11:13,-0.98,0.15,-0.18,1.82,0.42,0.7
4:11:13,-0.98,0.15,-0.19,1.4,0.56,0.63
4:11:13,-0.98,0.16,-0.19,1.12,0.42,0.63
4:11:13,-0.97,0.16,-0.18,0.84,0.7,0.84
4:11:13,-0.97,0.16,-0.19,0.7,0.77,0.91
4:11:13,-0.97,0.16,-0.19,0.63,0.63,0.7
4:11:13,-0.97,0.16,-0.19,0.56,0.63,1.26
4:11:13,-0.98,0.16,-0.19,0.14,0.84,1.33
4:11:13,-0.98,0.16,-0.19,-0.21,1.4,0.77
4:11:13,-0.97,0.16,-0.19,-0.49,1.33,1.33
4:11:13,-0.97,0.15,-0.19,-0.7,1.12,1.19
4:11:13,-0.97,0.15,-0.19,-1.12,0.98,0.63
4:11:13,-0.98,0.15,-0.19,-1.47,1.26,0.7
4:11:13,-0.98,0.15,-0.19,-1.61,1.33,0.91
4:11:13,-0.97,0.15,-0.19,-1.54,0.98,0.35
4:11:13,-0.98,0.15,-0.19,-1.54,1.05,0.7
4:11:13,-0.97,0.15,-0.19,-1.4,1.33,0.35
4:11:13,-0.97,0.15,-0.19,-1.33,1.05,0.56
4:11:13,-0.97,0.15,-0.19,-1.47,0.98,0.28
4:11:13,-0.98,0.15,-0.2,-1.33,1.19,0.49
4:11:13,-0.97,0.14,-0.19,-1.05,0.98,0.56
4:11:13,-0.97,0.14,-0.19,-0.84,0.91,0.28
4:11:13,-0.97,0.15,-0.19,-0.98,0.84,0.35
4:11:13,-0.98,0.15,-0.19,-1.19,0.98,0.28
4:11:13,-0.98,0.15,-0.19,-1.33,1.12,0.14
4:11:13,-0.98,0.14,-0.19,-0.98,1.26,0.35
4:11:13,-0.97,0.14,-0.19,-0.42,0.98,0.7
4:11:13,-0.97,0.15,-0.19,0.07,0.98,0.49
4:11:13,-0.97,0.15,-0.19,0.14,0.98,0.56
4:11:13,-0.97,0.15,-0.19,0.14,0.91,0.77
4:11:13,-0.97,0.14,-0.19,0,1.12,0.42
4:11:13,-0.97,0.15,-0.19,0.14,1.19,0.84
4:11:13,-0.97,0.15,-0.19,0.07,1.19,0.35
4:11:13,-0.97,0.15,-0.18,-0.07,1.47,0.77
4:11:13,-0.98,0.15,-0.18,-0.07,1.47,0.49
4:11:13,-0.98,0.15,-0.18,17.85,1.19,0.77
4:11:13,-0.98,0.15,-0.18,0,1.33,0.7
4:11:13,-0.98,0.15,-0.18,0.07,1.05,0.77
4:11:13,-0.98,0.15,-0.19,-0.14,0.98,0.56
4:11:13,-0.98,0.15,-0.18,-0.21,0.77,0.7
4:11:13,-0.98,0.15,-0.19,-0.28,0.77,0.56
4:11:13,-0.98,0.15,-0.19,-0.49,0.56,0.56
4:11:13,-0.98,0.15,-0.19,-0.56,0.42,0.84
4:11:13,-0.98,0.15,-0.19,-0.49,0.21,0.56
4:11:13,-0.98,0.14,-0.19,-0.35,0.35,0.98
4:11:13,-0.97,0.15,-0.19,-0.28,0.28,1.05
4:11:13,-0.98,0.15,-0.2,-0.35,0.56,1.12
4:11:13,-0.97,0.15,-0.19,-0.49,0.49,0.91
4:11:13,-0.97,0.15,-0.19,-0.7,0.56,0.98
4:11:13,-0.97,0.15,-0.19,-0.63,0.7,1.05
4:11:13,-0.97,0.15,-0.19,-0.7,0.91,1.33
4:11:13,-0.97,0.14,-0.19,-0.56,1.05,0.77
4:11:13,-0.97,0.14,-0.19,-0.56,1.33,1.05
4:11:13,-0.98,0.14,-0.19,-0.56,1.33,0.98
4:11:13,-0.97,0.15,-0.19,-0.63,0.98,0.91
4:11:13,-0.98,0.15,-0.19,-0.42,1.47,0.84
4:11:13,-0.98,0.15,-0.19,0.07,1.19,1.26
4:11:13,-0.97,0.15,-0.19,0.49,1.19,1.12
4:11:13,-0.98,0.15,-0.19,1.19,0.84,1.26
4:11:13,-0.98,0.15,-0.19,1.47,0.77,1.05
4:11:13,-0.98,0.15,-0.19,1.47,0.63,1.33
4:11:13,-0.97,0.15,-0.19,1.26,0.56,1.33
4:11:13,-0.97,0.15,-0.19,1.12,0.49,0.77
4:11:13,-0.97,0.15,-0.19,0.77,0.77,0.56
4:11:13,-0.97,0.16,-0.19,0.21,0.84,0.77
4:11:13,-0.98,0.15,-0.19,-0.35,1.12,0.91
4:11:13,-0.98,0.15,-0.19,-0.42,0.91,0.63
4:11:13,-0.98,0.15,-0.18,-0.42,1.05,0.98
4:11:13,-0.98,0.15,-0.18,-0.14,0.7,0.91
4:11:13,-0.98,0.15,-0.19,-0.28,0.7,1.05
4:11:13,-0.97,0.15,-0.19,-0.07,0.63,0.91
4:11:13,-0.97,0.15,-0.19,0,0.77,0.98
4:11:13,-0.97,0.15,-0.19,-0.56,1.26,0.91
4:11:13,-0.98,0.15,-0.19,-0.91,1.19,0.77
4:11:13,-0.98,0.15,-0.19,-1.19,1.75,0.7
4:11:13,-0.98,0.15,-0.19,-0.98,1.75,0.91
4:11:13,-0.98,0.15,-0.19,-0.63,1.4,1.26
4:11:13,-0.97,0.15,-0.18,-0.07,0.84,0.84
4:11:13,-0.98,0.14,-0.19,0.28,0.84,0.77
4:11:13,-0.98,0.14,-0.19,0.42,0.84,1.19
4:11:13,-0.98,0.14,-0.19,0.98,0.84,0.91
4:11:13,-0.98,0.14,-0.19,1.12,0.63,1.19
4:11:13,-0.98,0.14,-0.19,1.05,0.7,1.26
4:11:13,-0.97,0.14,-0.19,1.4,0.35,1.05
4:11:13,-0.98,0.15,-0.19,1.26,0.84,1.12
4:11:13,-0.97,0.16,-0.19,0.98,0.63,0.63
4:11:13,-0.97,0.16,-0.19,0.84,0.49,0.63
4:11:13,-0.97,0.16,-0.19,0.91,0.84,0.98
4:11:13,-0.97,0.15,-0.19,1.19,0.77,0.98
4:11:13,-0.98,0.16,-0.19,1.4,0.56,1.26
4:11:13,-0.98,0.15,-0.19,1.47,0.77,1.26
4:11:13,-0.98,0.15,-0.19,1.54,0.98,1.54
4:11:13,-0.98,0.15,-0.19,1.4,0.7,1.4
4:11:13,-0.98,0.15,-0.18,0.98,0.91,1.26
4:11:13,-0.98,0.15,-0.18,0.42,0.84,0.77
4:11:13,-0.98,0.15,-0.18,0.14,0.84,0.91
4:11:13,-0.97,0.15,-0.18,0,1.05,0.77
4:11:13,-0.97,0.15,-0.18,0,1.4,0.91
4:11:13,-0.97,0.16,-0.19,-0.21,1.4,0.35
4:11:13,-0.97,0.16,-0.19,-0.21,1.47,0.63
4:11:13,-0.97,0.16,-0.19,-0.21,1.33,0.77
4:11:13,-0.97,0.16,-0.19,0.28,0.84,0.63
4:11:13,-0.98,0.15,-0.19,0.35,1.19,0.98
4:11:13,-0.98,0.15,-0.19,0.28,0.77,0.77
4:11:13,-0.98,0.15,-0.19,0.35,0.49,0.77
4:11:13,-0.97,0.15,-0.19,0.56,0.42,0.98
4:11:13,-0.97,0.15,-0.19,0.28,0.91,0.7
4:11:13,-0.98,0.15,-0.19,-0.21,1.19,0.63
4:11:13,-0.97,0.15,-0.19,-0.28,1.19,0.84
4:11:13,-0.97,0.15,-0.19,-0.35,1.12,0.7
4:11:13,-0.97,0.15,-0.19,-0.35,0.98,0.84
4:11:13,-0.98,0.15,-0.19,-0.7,1.33,0.77
4:11:13,-0.98,0.15,-0.19,-0.84,1.47,0.98
4:11:13,-0.98,0.15,-0.19,-0.84,1.68,0.7
4:11:13,-0.98,0.15,-0.19,-0.56,0.91,1.12
4:11:13,-0.98,0.15,-0.19,-0.07,1.19,0.91
4:11:13,-0.97,0.15,-0.19,0.21,0.84,1.26
4:11:13,-0.98,0.15,-0.19,0.14,0.56,1.19
4:11:13,-0.98,0.15,-0.19,-0.07,0.84,0.84
4:11:13,-0.97,0.15,-0.19,-0.28,0.84,0.91
4:11:13,-0.97,0.15,-0.19,-0.42,0.91,0.98
4:11:13,-0.97,0.15,-0.19,-0.35,1.26,0.84
4:11:13,-0.97,0.15,-0.19,-0.42,1.33,1.19
4:11:13,-0.97,0.15,-0.19,-0.28,0.98,0.56
4:11:13,-0.98,0.15,-0.19,-0.21,0.7,0.7
4:11:13,-0.98,0.15,-0.19,0.35,0.7,0.84
4:11:13,-0.97,0.15,-0.2,0.77,0.07,1.33
4:11:13,-0.97,0.15,-0.19,0.98,0.56,1.19
4:11:13,-0.97,0.15,-0.19,0.14,0.63,1.12
4:11:13,-0.97,0.15,-0.19,-0.49,0.91,1.05
4:11:13,-0.98,0.15,-0.19,-0.7,0.49,0.91
4:11:13,-0.97,0.15,-0.19,-0.84,1.05,1.05
4:11:13,-0.97,0.15,-0.19,-0.77,0.98,1.26
4:11:13,-0.98,0.15,-0.19,-0.7,1.05,0.91
4:11:13,-0.98,0.14,-0.19,-0.56,1.12,0.91
4:11:13,-0.98,0.14,-0.19,-0.63,1.05,0.77
4:11:13,-0.98,0.14,-0.19,-0.84,0.77,1.19
4:11:13,-0.97,0.14,-0.19,-0.56,1.19,0.77
4:11:13,-0.97,0.15,-0.19,-0.21,0.7,1.12
4:11:13,-0.98,0.15,-0.19,-0.14,0.98,0.84
4:11:13,-0.97,0.15,-0.19,-0.42,0.91,0.84
4:11:13,-0.97,0.15,-0.19,-0.07,0.7,0.77
4:11:13,-0.97,0.15,-0.19,-0.07,0.49,0.91
4:11:13,-0.97,0.15,-0.19,-0.21,0.77,1.12
4:11:13,-0.97,0.15,-0.19,-0.21,0.77,0.63
4:11:13,-0.98,0.15,-0.19,-0.21,0.84,0.91
4:11:13,-0.98,0.14,-0.19,0.14,0.63,1.4
4:11:13,-0.98,0.15,-0.19,0.28,0.56,1.19
4:11:13,-0.98,0.15,-0.19,0,0.49,1.05
4:11:13,-0.98,0.15,-0.19,-0.28,0,0.84
4:11:13,-0.98,0.15,-0.19,-0.49,0.84,0.84
4:11:13,-0.97,0.16,-0.19,-0.7,1.19,0.77
4:11:13,-0.97,0.16,-0.19,-0.63,1.05,0.98
4:11:13,-0.97,0.15,-0.19,-0.63,1.05,0.77
4:11:13,-0.97,0.15,-0.19,-0.49,1.05,0.77
4:11:13,-0.97,0.15,-0.19,-0.14,1.05,0.77
