Time,Accel_x,Accel_y,Accel_z,Gyr_x,Gyr_y,Gyr_z, Label
4:10:12,-0.84,0.06,-0.07,-67.9,-6.72,50.19,
4:10:12,-0.79,0.06,-0.06,-68.95,-1.05,46.76,
4:10:12,-0.75,0.03,-0.08,-59.01,3.01,44.73,
4:10:12,-0.7,0.04,-0.07,-50.33,11.48,37.38,
4:10:12,-0.64,0.02,-0.09,-51.17,22.33,32.2,
4:10:12,-0.6,-0.04,-0.13,-50.54,28.21,22.47,
4:10:12,-0.59,-0.13,-0.16,-42.56,29.4,8.89,
4:10:12,-0.57,-0.25,-0.16,-24.08,28.07,-2.52,
4:10:12,-0.56,-0.35,-0.14,-7.35,26.32,-10.57,
4:10:12,-0.53,-0.4,-0.1,12.74,31.01,-20.72,
4:10:12,-0.53,-0.41,-0.08,30.66,38.43,-30.94,
4:10:12,-0.58,-0.38,-0.08,40.32,46.41,-44.31,
4:10:12,-0.64,-0.33,-0.03,40.25,57.05,-56.98,
4:10:12,-0.73,-0.27,0.02,26.25,66.43,-69.72,
4:10:12,-0.86,-0.15,0.09,1.4,67.76,-76.23,
4:10:12,-1,-0.02,0.19,-32.83,52.99,-72.94,
4:10:12,-1.24,0.09,0.31,-56.14,31.29,-53.69,
4:10:12,-1.31,0.24,0.37,-24.43,27.51,-25.55,
4:10:12,-1.4,0.41,0.29,64.26,35.91,31.01,
4:10:12,-1.21,0.81,0.03,174.93,53.13,124.6,
4:10:12,-1,1.45,-0.23,151.76,76.3,201.11,
4:10:12,-0.93,1.97,-0.4,56.84,26.81,213.85,
4:10:12,-0.78,2.13,0.06,51.59,-15.75,147.91,
4:10:12,-0.62,2.38,0.56,41.23,-4.83,31.36,
4:10:12,-0.52,2.01,0.52,-55.3,22.47,-35.14,
4:10:12,-0.73,0.65,0.06,-100.59,30.73,-22.96,
4:10:12,-0.86,0.34,-0.35,-69.51,24.22,-22.68,
4:10:12,-1.03,0.16,-0.6,-15.26,19.95,-27.16,
4:10:12,-1.1,-0.01,-0.66,43.82,21.28,-26.18,
4:10:12,-1.08,-0.05,-0.42,79.73,28.21,-24.5,
4:10:12,-1.05,0.08,0.07,49.07,41.86,-45.22,
4:10:12,-1.14,0.3,0.66,-166.25,20.93,-101.92,
4:10:12,-1.36,-0.07,0.93,-297.78,-23.73,-160.37,
4:10:12,-1.28,-0.86,0.6,-132.93,23.03,-122.5,
4:10:12,-1.49,-0.57,-0.23,59.57,69.65,-31.15,
4:10:12,-1.62,0.16,-0.46,75.39,116.69,33.18,
4:10:12,-1.89,0.52,-0.79,22.19,126.98,59.71,
4:10:12,-1.9,0.75,-0.86,-33.32,84.91,62.37,
4:10:12,-1.58,0.76,-0.62,-53.27,34.16,39.34,
4:10:12,-1.1,0.55,-0.37,-30.94,15.68,13.37,
4:10:12,-0.73,0.4,-0.22,12.67,13.44,-5.18,
4:10:12,-0.45,0.32,-0.14,42.35,13.58,-25.9,
4:10:12,-0.37,0.2,-0.14,60.06,4.34,-38.57,
4:10:12,-0.35,0.14,-0.15,63.63,-12.32,-36.05,
4:10:12,-0.38,0.1,-0.19,42.14,-38.71,-18.69,
4:10:12,-0.41,0.09,-0.22,21.7,-69.16,0.84,
4:10:12,-0.49,0.13,-0.23,8.47,-86.87,8.26,
4:10:12,-0.6,0.11,-0.29,5.74,-91.35,16.03,
4:10:12,-0.75,0.13,-0.36,6.65,-88.06,24.71,
4:10:12,-0.93,0.1,-0.4,16.59,-72.59,28.21,
4:10:12,-1.17,0,-0.48,66.5,-31.5,15.26,
4:10:12,-1.3,-0.1,-0.55,110.32,5.25,-7.84,
4:10:12,-1.27,-0.17,-0.52,134.26,33.39,-13.79,
4:10:12,-1.14,-0.15,-0.48,112.21,42.84,1.33,
4:10:12,-0.98,-0.06,-0.45,78.96,33.11,14.49,
4:10:12,-0.84,0.02,-0.42,51.66,14.35,17.78,
4:10:12,-0.71,0.06,-0.4,40.32,-3.15,17.43,
4:10:12,-0.66,0.12,-0.41,34.93,-18.83,18.83,
4:10:12,-0.76,0.22,-0.48,35.28,-33.25,12.88,
4:10:12,-0.92,0.28,-0.56,49.7,-46.06,-2.94,
4:10:12,-0.95,0.33,-0.54,75.46,-46.06,-12.18,
4:10:12,-0.94,0.45,-0.43,78.68,-20.65,-17.92,
4:10:12,-0.91,0.46,-0.4,59.15,14,-19.18,
4:10:12,-0.86,0.48,-0.4,27.09,38.78,-21.7,
4:10:12,-0.8,0.47,-0.38,1.47,54.53,-28.98,
4:10:12,-0.75,0.45,-0.39,-15.4,66.15,-34.93,
4:10:12,-0.71,0.45,-0.39,-22.82,75.46,-38.36,
4:10:12,-0.69,0.48,-0.38,-31.43,85.19,-42.98,
4:10:12,-0.68,0.45,-0.38,-32.55,95.27,-44.31,
4:10:12,-0.69,0.41,-0.39,-21.91,104.16,-40.74,
4:10:12,-0.72,0.37,-0.4,-1.61,107.87,-33.95,
4:10:12,-0.78,0.37,-0.39,21.63,104.58,-29.26,
4:10:12,-0.83,0.34,-0.39,44.38,100.31,-21.56,
4:10:12,-0.89,0.33,-0.38,63.35,95.76,-14.7,
4:10:12,-0.94,0.34,-0.35,73.43,93.03,-8.82,
4:10:12,-0.99,0.36,-0.33,75.39,90.16,-7.42,
4:10:12,-1.04,0.34,-0.32,74.41,87.43,-8.68,
4:10:12,-1.07,0.32,-0.29,74.76,80.78,-14.21,
4:10:12,-1.1,0.31,-0.18,71.26,63.77,-26.74,
4:10:12,-1.32,0.51,0.08,-13.93,-9.03,-51.8,
4:10:12,-1.28,0.22,0.24,-34.51,-88.27,-40.88,
4:10:12,-0.91,0.12,0.23,26.04,-63.7,-14.49,
4:10:12,-0.72,0.2,-0.05,75.6,-15.96,-12.74,
4:10:12,-0.8,0.38,-0.31,79.94,-8.19,-19.46,
4:10:12,-0.85,0.48,-0.44,43.12,-38.92,-24.22,
4:10:12,-0.79,0.5,-0.49,-1.75,-59.15,-27.44,
4:10:12,-0.76,0.47,-0.53,-23.59,-69.65,-26.6,
4:10:12,-0.75,0.44,-0.55,-8.4,-69.23,-22.19,
4:10:12,-0.74,0.46,-0.56,21.84,-64.96,-13.86,
4:10:12,-0.69,0.52,-0.53,45.43,-53.9,-5.32,
4:10:12,-0.7,0.58,-0.53,55.16,-43.54,-3.85,
4:10:12,-0.74,0.63,-0.51,55.16,-38.15,-10.99,
4:10:12,-0.77,0.66,-0.48,41.72,-31.64,-14.91,
4:10:12,-0.77,0.64,-0.45,26.18,-20.37,-17.15,
4:10:12,-0.75,0.63,-0.43,12.81,-7.07,-18.34,
4:10:12,-0.75,0.64,-0.41,-2.59,5.67,-20.3,
4:10:12,-0.77,0.64,-0.39,-17.99,21.77,-19.11,
4:10:12,-0.82,0.61,-0.37,-27.16,37.38,-15.19,
4:10:12,-0.88,0.61,-0.35,-29.82,53.27,-9.45,
4:10:12,-0.96,0.6,-0.3,-29.75,66.15,-2.03,
4:10:12,-1.25,0.64,-0.2,-36.47,37.17,0.21,
4:10:12,-2.15,0.6,0.28,-41.37,-153.51,1.12,
4:10:12,-1.85,0.51,0.67,-9.03,-240.66,5.25,
4:10:12,-1.16,0.4,0.61,-5.11,-181.93,23.17,
4:10:12,-0.96,0.39,0.41,-21.14,-85.47,67.9,
4:10:12,-1.17,0.57,0.03,-46.48,-61.39,96.53,
4:10:12,-1.37,0.56,-0.21,-43.54,-100.94,86.1,
4:10:12,-1.27,0.37,-0.22,-25.83,-119.56,83.44,
4:10:12,-1.21,0.24,-0.21,-14.28,-91.91,95.83,
4:10:12,-1.32,0.2,-0.25,-5.25,-102.34,98.14,
4:10:12,-1.36,0.09,-0.24,7.77,-101.99,91.77,
4:10:12,-1.38,0.02,-0.24,30.38,-95.83,74.97,
4:10:12,-1.42,-0.05,-0.25,45.57,-96.46,60.76,
4:10:12,-1.4,-0.15,-0.23,54.32,-99.05,50.96,
4:10:12,-1.39,-0.25,-0.18,66.29,-101.08,43.96,
4:10:12,-1.31,-0.31,-0.08,78.47,-100.94,43.33,
4:10:12,-1.12,-0.34,-0.04,84.7,-92.4,52.85,
4:10:12,-0.92,-0.33,-0.03,89.88,-79.1,77.63,
4:10:12,-0.83,-0.02,-0.05,73.99,-63.07,79.87,
4:10:12,-0.79,0.11,-0.17,61.6,-51.87,69.23,
4:10:12,-0.8,0.24,-0.26,58.38,-52.5,54.46,
4:10:12,-0.79,0.36,-0.3,48.58,-48.44,48.51,
4:10:12,-0.81,0.43,-0.34,30.52,-42.91,58.8,
4:10:12,-0.83,0.42,-0.35,36.96,-36.12,69.44,
4:10:12,-0.79,0.47,-0.33,65.1,-32.9,76.09,
4:10:12,-0.75,0.49,-0.24,72.38,-36.47,75.67,
4:10:12,-0.79,0.5,-0.09,59.71,-37.87,74.13,
4:10:12,-0.84,0.45,0.07,32.41,-31.08,69.09,
4:10:12,-0.84,0.35,0.08,11.41,-20.65,65.17,
4:10:12,-0.81,0.28,0.02,0.56,-10.5,58.94,
4:10:12,-0.76,0.21,-0.04,-6.51,-2.31,51.52,
4:10:12,-0.73,0.16,-0.06,-12.74,4.48,48.09,
4:10:12,-0.69,0.16,-0.01,-19.25,11.9,42.35,
4:10:12,-0.66,0.14,-0.01,-27.51,26.95,32.34,
4:10:12,-0.64,0.12,-0.04,-33.39,34.09,22.89,
4:10:12,-0.65,0.06,-0.07,-37.17,37.52,10.43,
4:10:12,-0.71,-0.09,-0.14,-23.66,33.18,-4.2,
4:10:12,-0.7,-0.22,-0.15,-5.39,28.63,-17.08,
4:10:12,-0.64,-0.28,-0.1,6.09,28.98,-26.04,
4:10:12,-0.59,-0.3,-0.04,15.19,33.25,-37.1,
4:10:12,-0.58,-0.32,-0.01,25.76,41.79,-47.46,
4:10:12,-0.61,-0.32,0,36.96,52.71,-54.25,
4:10:12,-0.67,-0.3,0.01,47.18,60.41,-61.25,
4:10:12,-0.76,-0.16,0.02,45.57,63.35,-66.64,
4:10:12,-0.83,-0.01,0.05,34.86,58.73,-68.53,
4:10:12,-0.89,0.18,0.06,27.3,51.31,-60.97,
4:10:12,-1.04,0.4,0.01,48.02,35.91,-46.2,
4:10:12,-1.15,0.63,-0.03,95.13,28.42,-12.46,
4:10:12,-1.22,0.86,-0.2,185.08,19.39,55.79,
4:10:12,-1.12,1.37,-0.3,204.68,22.54,152.11,
4:10:12,-1.01,1.81,-0.39,146.09,4.06,211.26,
4:10:12,-0.81,2.02,-0.02,159.32,-27.37,183.26,
4:10:12,-0.52,2.43,0.62,161.28,-24.08,82.81,
4:10:12,-0.34,2.61,0.73,30.73,22.96,-12.11,
4:10:12,-0.5,1.73,0.27,-55.3,51.59,-66.29,
4:10:12,-0.81,0.89,-0.16,-80.85,49.56,-52.36,
4:10:12,-1.06,0.38,-0.49,-73.64,49.7,-36.33,
4:10:12,-1.23,0.16,-0.68,-40.88,31.57,-24.01,
4:10:12,-1.24,0.13,-0.59,-2.31,12.18,-16.45,
4:10:12,-1.22,0.18,-0.4,14.42,13.44,-14.21,
4:10:12,-1.43,0.31,-0.28,7.84,32.83,-20.37,
4:10:12,-1.65,0.42,-0.13,-48.37,69.72,-32.69,
4:10:12,-1.79,0.43,-0.08,-109.2,112.63,-49.35,
4:10:12,-1.68,0.29,-0.25,-142.24,147.14,-56.21,
4:10:12,-1.49,0.16,-0.22,-134.47,152.6,-54.11,
4:10:12,-1.27,0.06,-0.23,-105.07,133.21,-52.92,
4:10:12,-1.06,0.01,-0.19,-80.99,92.12,-63.63,
4:10:12,-0.91,0.02,-0.09,-95.97,19.6,-87.99,
4:10:12,-0.72,-0.09,0.01,-119.07,-49.07,-120.47,
4:10:12,-0.38,-0.3,0.09,-88.41,-54.67,-127.05,
4:10:12,-0.35,-0.28,0.07,-35.56,-28.7,-117.04,
4:10:12,-0.29,-0.31,0,16.73,-3.22,-101.29,
4:10:12,-0.34,-0.33,-0.12,60.06,10.15,-81.41,
4:10:12,-0.55,-0.32,-0.29,78.05,-3.36,-41.23,
4:10:12,-0.87,-0.25,-0.45,64.05,-29.75,5.25,
4:10:12,-1.19,-0.2,-0.58,57.47,-54.74,44.45,
4:10:12,-1.39,-0.05,-0.59,50.54,-70.21,63,
4:10:12,-1.48,0.15,-0.55,40.88,-78.4,58.45,
4:10:12,-1.34,0.33,-0.4,23.8,-70.07,11.2,
4:10:12,-1.09,0.35,-0.34,7.77,-53.69,-19.67,
4:10:12,-0.9,0.34,-0.37,-16.03,-47.88,-34.44,
4:10:12,-0.75,0.3,-0.32,-29.26,-41.65,-35.7,
4:10:12,-0.63,0.26,-0.34,-24.71,-25.55,-27.58,
4:10:12,-0.7,0.28,-0.44,-2.59,-25.06,-20.3,
4:10:12,-0.7,0.37,-0.51,46.83,-23.38,-19.39,
4:10:12,-0.74,0.38,-0.69,74.69,-30.24,-10.36,
4:10:12,-0.88,0.44,-0.82,107.38,-53.62,2.87,
4:10:12,-0.92,0.48,-0.75,134.19,-71.89,19.67,
4:10:12,-0.89,0.61,-0.5,133.49,-66.85,21.28,
4:10:12,-0.78,0.58,-0.39,123.13,-38.99,19.95,
4:10:12,-0.72,0.49,-0.39,125.16,-1.75,14.84,
4:10:12,-0.74,0.48,-0.4,125.72,28.35,4.76,
4:10:12,-0.76,0.42,-0.4,110.6,49,5.39,
4:10:12,-0.77,0.39,-0.4,92.68,64.19,9.1,
4:10:12,-0.77,0.39,-0.36,74.55,76.16,11.48,
4:10:12,-0.79,0.36,-0.31,66.92,85.68,4.76,
4:10:12,-0.81,0.31,-0.28,75.46,100.03,0.7,
4:10:12,-0.86,0.31,-0.29,92.75,109.69,2.45,
4:10:12,-0.92,0.32,-0.3,98.56,112.28,5.46,
4:10:12,-0.94,0.34,-0.28,94.99,111.16,7.42,
4:10:12,-0.96,0.38,-0.24,82.39,108.92,4.83,
4:10:12,-0.98,0.41,-0.22,66.99,108.36,-2.94,
4:10:12,-0.99,0.41,-0.19,52.01,108.15,-11.13,
4:10:12,-1.01,0.41,-0.15,42.7,103.6,-16.45,
4:10:12,-1.04,0.4,-0.05,38.5,83.51,-9.52,
4:10:12,-1.33,0.32,-0.02,68.18,-36.96,19.95,
4:10:12,-0.99,0.51,0.23,111.58,-123.27,31.71,
4:10:12,-0.65,0.65,0.17,96.25,-73.71,10.36,
4:10:12,-0.6,0.68,-0.05,62.86,-33.18,-9.73,
4:10:12,-0.68,0.61,-0.3,16.38,-34.37,-19.74,
4:10:12,-0.66,0.6,-0.36,-11.06,-38.29,-20.16,
4:10:12,-0.71,0.57,-0.45,-17.22,-41.58,-14.42,
4:10:12,-0.74,0.59,-0.51,-1.61,-43.75,-14.77,
4:10:12,-0.75,0.56,-0.49,25.13,-44.17,-13.3,
4:10:12,-0.7,0.63,-0.47,34.86,-36.96,-15.68,
4:10:12,-0.64,0.61,-0.41,30.45,-25.9,-17.71,
4:10:12,-0.61,0.59,-0.37,16.31,-13.37,-19.18,
4:10:12,-0.62,0.61,-0.32,-2.59,-0.56,-24.15,
4:10:12,-0.59,0.61,-0.23,-25.55,27.51,-26.11,
4:10:12,-0.62,0.6,-0.2,-38.64,51.1,-28.21,
4:10:12,-0.73,0.57,-0.17,-36.47,58.1,-30.8,
4:10:12,-0.95,0.51,-0.09,17.85,14,-25.48,
4:10:12,-1.14,0.64,0.12,25.76,-41.37,-21.21,
4:10:12,-1.07,0.71,0.19,0.56,-42.28,-18.13,
4:10:12,-1.03,0.72,-0.23,-25.55,-24.92,-21.77,
4:10:12,-0.98,0.69,-0.38,-28.7,-26.04,-23.03,
4:10:12,-0.98,0.73,-0.45,-31.64,-40.53,-22.89,
4:10:12,-1.05,0.78,-0.41,-41.23,-51.31,-9.87,
4:10:12,-1.16,0.79,-0.32,-46.41,-49.91,8.47,
4:10:12,-1.3,0.79,-0.18,-32.27,-46.48,32.06,
4:10:12,-1.72,0.95,0.06,-46.27,-100.17,43.26,
4:10:12,-1.47,0.93,0.32,-90.16,-121.17,42.07,
4:10:12,-1.08,0.76,0.15,-126,-85.61,53.76,
4:10:12,-0.95,0.63,-0.28,-144.55,-72.24,70.42,
4:10:12,-0.88,0.52,-0.48,-151.41,-74.27,83.44,
4:10:12,-0.89,0.42,-0.53,-146.44,-69.02,98.98,
4:10:12,-0.97,0.32,-0.51,-122.5,-54.67,110.67,
4:10:12,-1.11,0.26,-0.52,-80.78,-35.84,108.22,
4:10:12,-1.27,0.23,-0.51,-41.65,-20.93,99.68,
4:10:12,-1.41,0.17,-0.48,-4.34,-14.56,80.78,
4:10:12,-1.53,0.13,-0.32,13.37,-20.16,62.3,
4:10:12,-1.59,0.05,-0.13,-12.67,-36.61,59.71,
4:10:12,-1.48,-0.06,-0.13,-21.14,-69.72,71.96,
4:10:12,-1.23,-0.09,-0.22,-0.07,-56.84,75.18,
4:10:12,-1.13,-0.1,-0.28,32.34,-55.72,68.6,
4:10:12,-1.06,-0.1,-0.28,69.09,-52.99,66.99,
4:10:12,-1,-0.09,-0.25,73.36,-41.44,65.1,
4:10:12,-0.98,0.03,-0.24,101.29,-23.73,66.71,
4:10:12,-1,0.36,-0.28,82.95,-19.74,68.04,
4:10:12,-0.97,0.5,-0.27,28.77,-14.42,70.49,
4:10:12,-0.89,0.6,-0.31,-34.09,-2.31,78.05,
4:10:12,-0.8,0.66,-0.34,-81.83,6.44,96.88,
4:10:12,-0.7,0.69,-0.31,-129.43,16.94,126,
4:10:12,-0.71,0.71,-0.41,-128.45,19.46,114.24,
4:10:12,-0.79,0.67,-0.36,-121.03,-4.48,78.68,
4:10:12,-0.77,0.49,-0.15,-97.09,-21.77,63.63,
4:10:12,-0.73,0.36,0.09,-107.38,1.82,63.07,
4:10:12,-0.77,0.14,0.06,-116.2,24.78,52.57,
4:10:12,-0.84,0.07,-0.04,-94.78,27.65,41.37,
4:10:12,-0.88,-0.02,-0.11,-70.14,22.05,33.95,
4:10:12,-0.88,-0.01,-0.06,-60.13,17.08,34.09,
4:10:12,-0.87,0.03,0.01,-73.57,20.37,34.09,
4:10:12,-0.91,-0.02,0.04,-83.23,19.32,40.25,
4:10:12,-0.96,-0.02,0.04,-75.25,15.68,40.95,
4:10:12,-0.95,0.08,0.03,-62.44,7.07,36.61,
4:10:12,-0.95,0.16,0.01,-58.24,-4.06,30.59,
4:10:12,-0.96,0.24,0.08,-55.09,-14.91,22.61,
4:10:12,-0.96,0.28,0.15,-59.29,-19.11,19.53,
4:10:12,-0.95,0.34,0.19,-59.78,-21,12.11,
4:10:12,-0.93,0.39,0.21,-55.65,-18.13,5.46,
4:10:12,-0.89,0.45,0.2,-49.07,-15.33,-0.7,
4:10:12,-0.83,0.51,0.15,-48.93,-13.86,-5.53,
4:10:12,-0.79,0.6,0.11,-54.11,-12.39,-12.32,
4:10:12,-0.76,0.66,-0.02,-60.27,-12.88,-22.33,
4:10:12,-0.74,0.67,-0.07,-63.7,-15.4,-30.38,
4:10:12,-0.7,0.66,-0.09,-69.3,-17.5,-36.19,
4:10:12,-0.72,0.66,-0.07,-87.08,-10.5,-42.21,
4:10:12,-0.74,0.56,-0.06,-93.94,-9.1,-45.64,
4:10:12,-0.72,0.51,0,-101.43,-3.92,-51.52,
4:10:12,-0.73,0.43,0,-97.86,-1.12,-55.51,
4:10:12,-0.75,0.39,0.02,-92.68,-1.61,-57.19,
4:10:12,-0.75,0.36,0.04,-95.83,2.03,-63.35,
4:10:12,-0.78,0.26,0.06,-91.91,3.85,-73.92,
4:10:12,-0.78,0.2,0.08,-90.72,5.67,-78.61,
4:10:12,-0.79,0.11,0.08,-82.88,8.26,-77.98,
4:10:12,-0.81,0.1,0.1,-71.47,9.52,-72.66,
4:10:12,-0.86,0.1,0.15,-59.78,9.45,-70,
4:10:12,-0.9,0.05,0.22,-39.9,10.08,-63.56,
4:10:12,-0.91,0.03,0.31,-19.53,14.63,-56.7,
4:10:12,-0.92,0.06,0.39,0,19.81,-49.7,
4:10:12,-0.91,0.07,0.44,13.3,27.3,-42.21,
4:10:12,-0.85,0.05,0.45,30.59,38.01,-31.57,
4:10:12,-0.83,0.04,0.42,49.56,47.74,-23.17,
4:10:12,-0.85,0,0.23,75.18,49.42,-14.84,
4:10:12,-0.88,-0.02,0.09,114.59,39.62,-11.62,
4:10:12,-0.8,-0.04,0.04,158.55,34.58,-9.66,
4:10:12,-0.7,-0.02,-0.04,194.25,37.8,-11.69,
4:10:12,-0.68,-0.07,-0.11,227.43,51.03,-17.01,
4:10:12,-0.95,-0.09,-0.1,240.24,73.15,-29.96,
4:10:12,-1.22,-0.08,-0.13,239.68,80.5,-52.29,
4:10:12,-1.56,0.05,-0.06,207.69,61.67,-79.59,
4:10:12,-1.9,0.11,0.05,110.67,8.68,-97.23,
4:10:12,-2.22,0.23,0.32,80.29,-36.68,-85.96,
4:10:12,-2.29,0.71,0.28,149.52,-29.26,0.42,
4:10:12,-1.9,1.61,-0.97,226.45,19.53,83.93,
4:10:12,-1.43,2.27,-0.87,94.36,-4.27,93.66,
4:10:12,-0.76,1.87,-0.52,12.18,1.47,56.7,
4:10:12,-0.34,1.2,-0.27,85.33,10.29,17.22,
4:10:12,-0.08,0.84,-0.03,133.77,20.16,8.4,
4:10:12,0.02,0.54,0.03,138.88,36.4,8.54,
4:10:12,-0.13,0.36,-0.1,103.6,42.56,35.77,
4:10:12,-0.39,0.24,-0.19,63.98,24.5,56.07,
4:10:12,-0.54,0.09,-0.26,49.56,-3.71,68.74,
4:10:12,-0.71,-0.04,-0.36,84.42,-40.04,79.17,
4:10:12,-0.93,-0.14,-0.51,138.6,-74.27,78.33,
4:10:12,-1.14,-0.1,-0.48,202.23,-89.95,63.07,
4:10:12,-1.35,-0.1,-0.45,258.3,-84.77,45.36,
4:10:12,-1.36,0.09,-0.12,252.07,-45.85,28.42,
4:10:12,-1.2,0.22,0.02,199.36,28.35,5.04,
4:10:12,-1.07,0.23,-0.04,128.59,76.02,-11.62,
4:10:12,-0.96,0.15,-0.15,67.76,82.95,-14.56,
4:10:12,-0.9,0.11,-0.21,24.92,64.61,-6.79,
4:10:12,-0.9,0.13,-0.23,-3.43,21.28,3.01,
4:10:12,-0.96,0.14,-0.24,-16.73,17.01,12.25,
4:10:12,-1,0.17,-0.24,-13.09,8.68,14.63,
4:10:12,-1,0.2,-0.26,3.43,4.76,10.22,
4:10:12,-0.97,0.24,-0.28,25.41,-0.35,3.43,
4:10:12,-0.93,0.28,-0.28,29.75,-9.87,-5.95,
4:10:12,-0.91,0.26,-0.3,33.67,-21.07,-9.03,
4:10:12,-0.91,0.22,-0.35,43.47,-36.26,-5.11,
4:10:12,-0.91,0.28,-0.33,50.26,-49.14,-0.77,
4:10:12,-0.95,0.32,-0.35,56.21,-55.65,4.06,
4:10:12,-1,0.38,-0.38,62.37,-58.66,3.85,
4:10:12,-0.99,0.35,-0.42,72.31,-59.57,7.77,
4:10:12,-0.95,0.31,-0.56,99.96,-66.15,11.62,
4:10:12,-0.88,0.24,-0.8,159.74,-93.87,19.25,
4:10:12,-0.76,0.25,-0.89,228.55,-121.24,45.08,
4:10:12,-0.73,0.52,-0.81,260.68,-135.8,71.61,
4:10:12,-0.69,0.65,-0.68,226.24,-122.08,73.64,
4:10:12,-0.67,0.76,-0.58,185.22,-74.41,50.82,
4:10:12,-0.74,0.65,-0.57,160.86,-28.7,31.92,
4:10:12,-0.76,0.57,-0.57,149.73,2.03,16.87,
4:10:12,-0.75,0.5,-0.56,149.73,18.27,5.18,
4:10:12,-0.74,0.44,-0.51,142.45,25.41,4.41,
4:10:12,-0.72,0.42,-0.45,129.64,31.01,8.82,
4:10:12,-0.74,0.47,-0.38,109.06,35.84,6.3,
4:10:12,-0.77,0.49,-0.3,85.82,45.43,-1.4,
4:10:12,-0.79,0.49,-0.26,68.25,64.82,-7.84,
4:10:12,-0.83,0.49,-0.24,52.5,78.75,-10.43,
4:10:12,-0.85,0.5,-0.24,38.22,87.43,-6.79,
4:10:12,-0.86,0.51,-0.25,25.13,90.16,-0.35,
4:10:12,-0.85,0.54,-0.26,20.02,88.34,4.34,
4:10:12,-0.81,0.55,-0.26,22.19,81.9,5.88,
4:10:12,-0.78,0.59,-0.26,27.16,72.24,4.06,
4:10:12,-0.76,0.61,-0.28,38.57,56.56,1.89,
4:10:12,-0.76,0.62,-0.29,56.56,34.72,4.13,
4:10:12,-0.75,0.67,-0.26,77.77,12.32,8.82,
4:10:12,-0.74,0.72,-0.23,92.33,-4.83,12.32,
4:10:12,-0.73,0.74,-0.21,101.15,-19.95,12.6,
4:10:12,-0.69,0.76,-0.19,101.85,-34.02,10.36,
4:10:12,-0.67,0.74,-0.18,93.8,-44.52,9.31,
4:10:12,-0.67,0.73,-0.18,82.81,-52.15,11.27,
4:10:12,-0.69,0.74,-0.18,60.13,-51.03,10.64,
4:10:12,-0.68,0.73,-0.18,39.13,-43.96,7.28,
4:10:12,-0.67,0.69,-0.2,22.89,-34.09,3.36,
4:10:12,-0.66,0.64,-0.23,12.67,-24.5,2.24,
4:10:12,-0.68,0.61,-0.3,6.09,-20.16,2.45,
4:10:12,-0.71,0.61,-0.32,3.92,-18.2,3.64,
4:10:12,-0.74,0.62,-0.33,9.17,-17.15,2.73,
4:10:12,-0.75,0.61,-0.32,21.35,-16.03,2.94,
4:10:12,-0.77,0.62,-0.31,35.7,-16.73,5.32,
4:10:12,-0.82,0.65,-0.29,46.83,-28.07,7.84,
4:10:12,-0.91,0.64,-0.24,63.91,-46.9,11.27,
4:10:12,-1,0.66,-0.16,82.81,-69.58,19.25,
4:10:12,-1.17,0.72,-0.08,97.93,-96.81,27.65,
4:10:12,-1.42,0.81,0.11,85.82,-126.7,26.67,
4:10:12,-1.63,0.79,0.3,52.08,-157.71,22.96,
4:10:12,-1.52,0.64,0.41,9.59,-148.19,30.1,
4:10:12,-1.27,0.45,0.15,-23.94,-108.78,53.62,
4:10:12,-1.22,0.36,-0.24,-36.26,-93.31,78.05,
4:10:12,-1.19,0.29,-0.52,-19.88,-113.33,107.03,
4:10:12,-1.18,0.28,-0.57,7.63,-142.38,106.12,
4:10:12,-1.15,0.28,-0.45,30.52,-141.96,116.48,
4:10:12,-1.28,0.19,-0.47,68.81,-125.3,124.88,
4:10:12,-1.56,0.17,-0.46,115.01,-123.2,116.27,
4:10:12,-1.86,0.2,-0.29,132.09,-151.34,67.76,
4:10:12,-1.94,0.11,0,106.54,-184.03,19.67,
4:10:12,-1.68,-0.17,0.19,95.69,-184.73,26.74,
4:10:12,-1.24,-0.26,0.21,110.46,-159.04,71.19,
4:10:12,-0.91,-0.12,0.12,133.42,-122.22,86.94,
4:10:12,-0.8,0.1,-0.05,133.28,-87.08,62.51,
4:10:12,-0.75,0.17,-0.2,100.52,-64.4,35.42,
4:10:12,-0.78,0.14,-0.33,60.48,-63.56,33.25,
4:10:12,-0.78,0.25,-0.35,32.83,-72.31,39.13,
4:10:12,-0.72,0.41,-0.31,-4.06,-72.59,39.9,
4:10:12,-0.66,0.45,-0.31,-35.28,-62.09,42.49,
4:10:12,-0.64,0.44,-0.32,-22.89,-55.16,51.17,
4:10:12,-0.65,0.53,-0.31,16.03,-56.21,57.54,
4:10:12,-0.64,0.54,-0.3,59.71,-56.35,65.52,
4:10:12,-0.72,0.56,-0.15,96.74,-60.27,60.55,
4:10:12,-0.88,0.39,0,82.67,-67.83,55.86,
4:10:12,-0.96,0.17,0.08,70.42,-70.91,58.87,
4:10:12,-0.87,0.1,0.06,57.33,-56.49,62.86,
4:10:12,-0.74,0,-0.06,61.25,-42.63,64.54,
4:10:12,-0.7,0.01,-0.08,68.81,-31.01,61.81,
4:10:12,-0.73,0.06,-0.05,62.09,-23.94,54.95,
4:10:12,-0.71,0.02,-0.01,58.31,-17.57,43.4,
4:10:12,-0.68,-0.06,0.01,66.36,-9.94,31.64,
4:10:12,-0.67,-0.07,0,70.56,0.49,17.57,
4:10:12,-0.69,-0.07,-0.03,76.23,4.97,5.18,
4:10:12,-0.67,0.03,-0.03,73.5,12.95,-10.64,
4:10:12,-0.63,0.09,-0.03,58.31,21.28,-28.84,
4:10:12,-0.61,0.14,-0.06,46.06,28.91,-45.85,
4:10:12,-0.63,0.18,-0.09,35.63,34.3,-60.27,
4:10:12,-0.62,0.25,-0.14,24.01,36.4,-70.56,
4:10:12,-0.65,0.37,-0.15,4.27,31.85,-77.98,
4:10:12,-0.68,0.45,-0.18,-11.2,26.67,-83.93,
4:10:12,-0.67,0.51,-0.18,-1.05,22.12,-73.85,
4:10:12,-0.7,0.65,-0.21,24.43,14.21,-59.64,
4:10:12,-0.71,0.86,-0.23,69.44,8.82,-36.61,
4:10:12,-0.68,1.01,-0.29,125.44,14.49,-5.04,
4:10:12,-0.66,1.22,-0.34,179.34,26.53,44.45,
4:10:12,-0.64,1.48,-0.36,216.44,42.49,98.91,
4:10:12,-0.66,1.71,-0.4,279.3,16.17,125.65,
4:10:12,-0.77,2.19,0.28,275.8,-69.44,124.25,
4:10:12,-0.57,2.3,1.19,107.1,-28.35,120.61,
4:10:12,-0.5,2.1,0.23,-127.33,27.58,80.99,
4:10:12,-0.63,1.17,-0.41,-126.49,37.38,5.46,
4:10:12,-0.81,0.44,-0.52,-10.22,39.9,-17.15,
4:10:12,-1.09,0.31,-0.29,56.28,54.11,16.45,
4:10:12,-1.23,0.53,0.1,42.49,63.14,17.08,
4:10:12,-1.51,0.69,0.39,-116.76,31.71,-42,
4:10:12,-1.53,0.21,0.25,-247.17,25.34,-103.11,
4:10:12,-1.63,-0.29,-0.21,-146.58,79.24,-85.05,
4:10:12,-1.75,-0.22,-0.46,-19.88,109.34,-3.15,
4:10:12,-1.69,0.1,-0.56,37.59,89.74,65.38,
4:10:12,-1.41,0.25,-0.49,55.58,42,70.84,
4:10:12,-1.1,0.22,-0.33,71.05,-2.59,51.17,
4:10:12,-0.88,0.16,-0.19,83.65,-35.42,30.03,
4:10:12,-0.78,0.11,-0.1,89.46,-47.11,17.36,
4:10:12,-0.74,0.09,-0.1,89.46,-48.44,5.74,
4:10:12,-0.72,0.06,-0.1,82.18,-48.86,-0.7,
4:10:12,-0.72,0.01,-0.1,71.47,-44.8,10.57,
4:10:12,-0.78,0.01,-0.14,61.46,-40.32,20.02,
4:10:12,-0.86,0,-0.2,59.78,-33.18,28.7,
4:10:12,-0.93,0.03,-0.31,70.42,-21.77,34.86,
4:10:12,-1.05,0.15,-0.43,74.13,-34.16,31.99,
4:10:12,-1.11,0.24,-0.47,60.9,-53.41,29.12,
4:10:12,-1.08,0.3,-0.46,35.91,-65.03,26.32,
4:10:12,-0.96,0.28,-0.41,31.99,-61.18,23.66,
4:10:12,-0.84,0.26,-0.37,36.75,-54.67,24.01,
4:10:12,-0.76,0.25,-0.38,46.76,-53.97,22.54,
4:10:12,-0.73,0.24,-0.41,63.7,-63.91,16.73,
4:10:12,-0.77,0.24,-0.44,77.7,-79.1,12.25,
4:10:12,-0.84,0.26,-0.48,87.71,-91.07,15.47,
4:10:12,-0.93,0.3,-0.54,93.17,-101.22,20.51,
4:10:12,-0.98,0.35,-0.57,92.26,-107.59,30.38,
4:10:12,-0.97,0.35,-0.64,103.32,-110.81,35.42,
4:10:12,-0.88,0.37,-0.69,128.94,-107.73,40.88,
4:10:12,-0.81,0.4,-0.67,176.54,-98.49,39.41,
4:10:12,-0.74,0.52,-0.58,157.36,-85.05,29.82,
4:10:12,-0.67,0.57,-0.53,124.04,-65.31,13.16,
4:10:12,-0.65,0.54,-0.51,95.34,-37.24,0.21,
4:10:12,-0.66,0.57,-0.47,68.6,-7.98,-15.75,
4:10:12,-0.67,0.53,-0.48,52.15,15.89,-29.96,
4:10:12,-0.67,0.53,-0.48,37.8,36.61,-32.13,
4:10:12,-0.7,0.51,-0.52,37.94,50.75,-36.61,
4:10:12,-0.74,0.54,-0.49,45.5,57.75,-40.74,
4:10:12,-0.77,0.56,-0.43,50.19,64.4,-43.68,
4:10:12,-0.79,0.58,-0.37,57.19,75.81,-43.19,
4:10:12,-0.8,0.59,-0.33,60.55,85.26,-42.35,
4:10:12,-0.8,0.58,-0.3,67.55,92.54,-37.87,
4:10:12,-0.79,0.54,-0.28,77.98,97.37,-30.52,
4:10:12,-0.8,0.53,-0.29,87.15,94.29,-24.15,
4:10:12,-0.79,0.56,-0.28,88.76,87.22,-20.93,
4:10:12,-0.79,0.55,-0.25,87.01,78.89,-17.36,
4:10:12,-0.79,0.53,-0.22,90.65,72.1,-10.15,
4:10:12,-0.8,0.53,-0.16,103.04,64.33,-1.96,
4:10:12,-0.85,0.75,-0.03,100.03,48.72,2.8,
4:10:12,-1.06,0.82,0.24,21.91,-27.93,-0.14,
4:10:12,-1.02,0.63,0.38,6.44,-73.85,-2.94,
4:10:12,-0.67,0.53,0.16,20.37,-41.09,-12.74,
4:10:12,-0.7,0.38,-0.23,34.58,-24.15,-3.71,
4:10:12,-0.78,0.41,-0.52,54.11,-50.47,14.21,
4:10:12,-0.78,0.49,-0.63,73.08,-89.11,19.18,
4:10:12,-0.72,0.49,-0.62,92.61,-113.96,21.84,
4:10:12,-0.67,0.54,-0.55,102.83,-115.92,28.35,
4:10:12,-0.67,0.65,-0.46,96.53,-102.06,28.07,
4:10:12,-0.67,0.69,-0.42,85.26,-81.13,17.29,
4:10:12,-0.63,0.68,-0.4,71.54,-59.85,7.42,
4:10:12,-0.59,0.68,-0.38,53.41,-40.81,2.45,
4:10:12,-0.59,0.7,-0.38,35.63,-25.2,-1.89,
4:10:12,-0.6,0.73,-0.35,26.04,-9.94,-8.61,
4:10:12,-0.63,0.74,-0.33,22.19,9.17,-13.02,
4:10:12,-0.68,0.75,-0.29,17.85,19.39,-12.39,
4:10:12,-0.74,0.79,-0.21,11.83,18.34,-5.74,
4:10:12,-0.84,0.85,-0.07,-10.29,-11.83,6.58,
4:10:12,-0.92,0.82,0.07,-8.19,-42.7,17.57,
4:10:12,-1,0.85,0.11,0.07,-56.98,16.94,
4:10:12,-1.07,0.81,0.04,-2.17,-65.73,22.54,
4:10:12,-1.11,0.78,-0.05,-8.19,-75.81,35.98,
4:10:12,-1.18,0.79,-0.08,-14.21,-91.98,48.86,
4:10:12,-1.22,0.76,-0.05,-20.58,-109.34,63.77,
4:10:12,-1.17,0.67,0,-27.16,-116.97,78.47,
4:10:12,-1.08,0.55,-0.07,-20.58,-114.94,91.63,
4:10:12,-0.99,0.46,-0.2,-7.56,-114.03,103.74,
4:10:12,-0.97,0.44,-0.28,0.42,-106.89,111.09,
4:10:12,-1.11,0.43,-0.32,6.58,-102.69,113.54,
4:10:12,-1.28,0.4,-0.3,13.23,-104.86,112.21,
4:10:12,-1.46,0.41,-0.23,25.9,-108.99,96.74,
4:10:12,-1.59,0.36,-0.11,25.9,-110.6,75.39,
4:10:12,-1.72,0.3,0.02,15.12,-115.29,50.47,
4:10:12,-1.72,0.18,0.13,14.84,-112.28,28.91,
4:10:12,-1.54,-0.02,0.12,36.12,-101.85,39.97,
4:10:12,-1.32,-0.06,0.02,64.89,-92.82,86.87,
4:10:12,-1.13,0.16,-0.1,79.17,-92.61,70.77,
4:10:12,-1,0.23,-0.21,78.75,-93.8,56.98,
4:10:12,-0.92,0.25,-0.28,65.1,-93.87,41.79,
4:10:12,-0.87,0.21,-0.34,55.72,-95.27,39.83,
4:10:12,-0.82,0.27,-0.31,47.67,-90.58,45.57,
4:10:12,-0.81,0.35,-0.29,18.83,-81.48,44.73,
4:10:12,-0.78,0.39,-0.26,29.05,-67.06,44.87,
4:10:12,-0.75,0.43,-0.23,21.84,-52.22,52.5,
4:10:12,-0.8,0.45,-0.19,27.51,-56.35,62.3,
4:10:12,-0.85,0.51,-0.04,30.59,-74.34,67.34,
4:10:12,-0.82,0.46,0.03,31.92,-69.72,61.67,
4:10:12,-0.84,0.33,-0.05,34.44,-62.37,54.18,
4:10:12,-0.83,0.19,-0.09,34.3,-61.25,56.56,
4:10:12,-0.78,0.08,-0.11,42.35,-56.98,63.7,
4:10:12,-0.72,0.07,-0.06,57.19,-48.23,67.62,
4:10:12,-0.65,0.05,0.01,63.49,-24.36,67.06,
4:10:12,-0.67,0.02,-0.03,67.69,-13.23,59.36,
4:10:12,-0.72,0,-0.07,71.33,-10.22,44.17,
4:10:12,-0.74,-0.04,-0.06,80.08,-14.21,34.3,
4:10:12,-0.73,0.04,-0.02,81.13,-15.4,22.4,
4:10:12,-0.69,0.14,0,77,-12.88,8.12,
4:10:12,-0.62,0.19,-0.03,72.73,-2.66,-2.87,
4:10:12,-0.61,0.3,-0.06,59.99,4.13,-13.58,
4:10:12,-0.61,0.36,-0.1,44.38,9.1,-29.47,
4:10:12,-0.61,0.38,-0.14,37.73,9.59,-45.15,
4:10:12,-0.6,0.47,-0.14,27.65,10.57,-52.15,
4:10:12,-0.59,0.54,-0.16,26.74,12.46,-56.84,
4:10:12,-0.58,0.61,-0.17,39.48,12.95,-55.37,
4:10:12,-0.6,0.7,-0.2,49.28,7.14,-55.3,
4:10:12,-0.62,0.75,-0.21,76.09,-7.91,-43.05,
4:10:12,-0.64,0.88,-0.13,97.16,-18.27,-34.72,
4:10:12,-0.59,0.96,-0.08,110.81,-14.7,-19.95,
4:10:12,-0.55,1.15,-0.07,111.09,2.1,-10.99,
4:10:12,-0.51,1.33,-0.08,92.75,22.54,-2.66,
4:10:12,-0.44,1.49,-0.05,64.96,38.43,12.25,
4:10:12,-0.46,1.66,0.09,19.32,43.96,9.73,
4:10:12,-0.49,1.64,0.18,-28.42,45.5,-33.88,
4:10:12,-0.53,1.21,0.15,-45.08,40.88,-37.03,
4:10:12,-0.63,0.93,0.15,-55.72,35.84,-29.4,
4:10:12,-0.77,0.78,0.04,-62.02,35.35,-29.68,
4:10:12,-0.88,0.59,-0.14,-64.89,41.23,-28.98,
4:10:12,-0.95,0.39,-0.22,-48.3,49.56,-26.67,
4:10:12,-1.16,0.33,-0.17,-5.04,55.58,-20.09,
4:10:12,-1.34,0.36,-0.06,34.16,50.12,-14.91,
4:10:12,-1.24,0.32,0.03,40.46,24.43,-11.27,
4:10:12,-1.31,0.39,0.19,8.26,10.99,-28.21,
4:10:12,-1.62,0.49,0.22,-36.4,11.97,-52.99,
4:10:12,-1.63,0.26,-0.14,-16.87,41.51,-28.63,
4:10:12,-1.51,0.3,-0.38,34.3,64.26,56.63,
4:10:12,-1.45,0.58,-0.42,51.8,63.56,65.94,
4:10:12,-1.3,0.6,-0.36,52.43,33.88,38.5,
4:10:12,-1.09,0.37,-0.23,59.71,-30.03,28.63,
4:10:12,-0.86,0.3,-0.05,54.32,-64.89,20.02,
4:10:12,-0.75,0.18,0.01,53.34,-51.17,5.53,
4:10:12,-0.71,0.17,0,56.49,-32.34,-5.95,
4:10:12,-0.7,0.15,-0.04,35.91,-25.13,-13.44,
4:10:12,-0.72,0.1,-0.08,15.12,-26.95,-15.96,
4:10:12,-0.79,0.04,-0.25,-2.87,-31.22,-9.73,
4:10:12,-0.87,-0.04,-0.23,1.68,-33.67,-3.29,
4:10:12,-0.97,-0.09,-0.33,30.03,-37.66,0.28,
4:10:12,-1.08,-0.07,-0.38,60.62,-42.84,7.14,
4:10:12,-1.15,-0.02,-0.46,77.21,-54.53,19.04,
4:10:12,-1.2,0.05,-0.51,78.12,-69.02,36.05,
4:10:12,-1.2,0.15,-0.55,71.33,-80.64,38.36,
4:10:12,-1.03,0.13,-0.53,79.1,-88.62,28.49,
4:10:12,-0.88,0.11,-0.49,98.77,-91.28,29.61,
4:10:12,-0.77,0.16,-0.44,109.76,-93.1,34.09,
4:10:12,-0.72,0.19,-0.44,113.96,-96.32,38.29,
4:10:12,-0.76,0.16,-0.53,130.69,-112,42.63,
4:10:12,-0.79,0.19,-0.74,148.19,-135.59,52.5,
4:10:12,-0.8,0.33,-0.76,159.53,-159.81,66.43,
4:10:12,-0.8,0.61,-0.69,138.81,-166.74,62.93,
4:10:12,-0.82,0.75,-0.55,88.13,-134.19,34.79,
4:10:12,-0.79,0.66,-0.49,63.7,-75.39,10.29,
4:10:12,-0.73,0.62,-0.48,51.59,-2.59,-18.76,
4:10:12,-0.73,0.52,-0.54,46.97,44.03,-39.55,
4:10:12,-0.69,0.48,-0.56,33.53,57.68,-43.33,
4:10:12,-0.65,0.51,-0.52,14.07,58.52,-42.49,
4:10:12,-0.65,0.53,-0.47,2.8,62.23,-40.74,
4:10:12,-0.69,0.57,-0.45,7.91,66.36,-39.27,
4:10:12,-0.7,0.62,-0.43,16.38,71.89,-34.65,
4:10:12,-0.73,0.69,-0.4,22.26,79.45,-31.15,
4:10:12,-0.75,0.74,-0.36,28.07,88.83,-29.26,
4:10:12,-0.74,0.7,-0.32,45.01,101.92,-24.22,
4:10:12,-0.73,0.71,-0.26,67.62,118.65,-0.49,
4:10:12,-0.72,0.65,-0.25,92.12,129.71,-9.52,
4:10:12,-0.72,0.64,-0.23,115.43,131.18,-3.22,
4:10:12,-0.74,0.62,-0.24,138.25,122.22,1.68,
4:10:12,-0.84,0.69,-0.16,160.02,94.71,2.94,
4:10:12,-1.22,0.7,-0.07,184.52,-25.76,8.75,
4:10:12,-1.31,0.93,0.54,163.45,-182.28,14.28,
4:10:12,-0.82,0.99,0.62,91.14,-140.49,4.27,
4:10:12,-0.52,0.79,0.28,25.97,-64.89,1.96,
4:10:12,-0.45,0.69,-0.06,-7.21,-8.96,8.75,
4:10:12,-0.57,0.71,-0.44,-19.74,1.96,0.49,
4:10:12,-0.64,0.63,-0.58,-5.81,-20.72,-13.37,
4:10:12,-0.62,0.54,-0.62,20.93,-45.99,-12.39,
4:10:12,-0.58,0.51,-0.62,56.07,-58.66,-3.78,
4:10:12,-0.6,0.67,-0.6,66.71,-57.54,-1.19,
4:10:12,-0.65,0.65,-0.52,63.07,-57.19,1.54,
4:10:12,-0.62,0.66,-0.4,65.03,-44.1,-4.41,
4:10:12,-0.59,0.67,-0.32,54.88,-25.2,-14.56,
4:10:12,-0.59,0.66,-0.28,38.36,-8.75,-17.64,
4:10:12,-0.59,0.67,-0.23,13.72,7.35,-17.92,
4:10:12,-0.59,0.69,-0.2,-3.08,25.62,-20.16,
4:10:12,-0.59,0.68,-0.2,-10.99,41.37,-20.23,
4:10:12,-0.63,0.7,-0.2,-17.99,40.74,-17.36,
4:10:12,-0.69,0.73,-0.16,-26.81,21.07,-11.55,
4:10:12,-0.75,0.76,-0.13,-26.88,2.17,-8.4,
4:10:12,-0.81,0.77,-0.16,-26.04,-5.95,-4.55,
4:10:12,-0.83,0.75,-0.24,-27.23,-9.87,2.59,
4:10:12,-0.86,0.75,-0.31,-22.61,-17.22,11.97,
4:10:12,-0.9,0.87,-0.33,-20.09,-30.8,18.41,
4:10:12,-1,0.97,-0.25,-32.62,-40.74,21.35,
4:10:12,-1.11,0.98,-0.09,-43.12,-46.2,30.59,
4:10:12,-1.24,0.98,0.07,-57.19,-60.41,41.65,
4:10:12,-1.3,0.95,0.22,-71.05,-76.79,54.67,
4:10:12,-1.3,0.86,0.25,-79.59,-79.66,66.85,
4:10:12,-1.24,0.71,0.11,-77.42,-68.53,75.88,
4:10:12,-1.13,0.57,-0.23,-71.75,-72.03,82.88,
4:10:12,-1.02,0.44,-0.33,-61.25,-83.09,90.02,
4:10:12,-0.94,0.38,-0.34,-46.9,-84.14,92.05,
4:10:12,-0.95,0.33,-0.31,-33.46,-75.04,92.96,
4:10:12,-1.04,0.35,-0.32,-30.03,-65.03,93.1,
4:10:12,-1.14,0.33,-0.31,-23.24,-60.76,88.13,
4:10:12,-1.27,0.29,-0.3,-12.95,-63.07,77.21,
4:10:12,-1.3,0.26,-0.2,3.5,-63.49,61.74,
4:10:12,-1.27,0.18,-0.18,20.3,-71.4,56.56,
4:10:12,-1.19,0.13,-0.17,40.11,-89.32,61.67,
4:10:12,-1.11,0.11,-0.13,51.17,-99.68,68.95,
4:10:12,-1.11,0.14,-0.16,64.89,-99.54,60.76,
4:10:12,-1.09,0.16,-0.19,78.89,-91.77,37.45,
4:10:12,-1.06,0.08,-0.24,83.16,-81.62,29.89,
4:10:12,-0.95,0.05,-0.26,74.27,-74.69,46.76,
4:10:12,-0.77,0.34,-0.16,35.21,-50.82,69.02,
4:10:12,-0.64,0.49,-0.16,-9.38,-3.08,78.4,
4:10:12,-0.63,0.59,-0.32,-15.19,22.12,99.47,
4:10:12,-0.64,0.72,-0.45,14,-33.74,144.48,
4:10:12,-0.64,0.88,-0.34,51.66,-96.39,179.76,
4:10:12,-0.62,1.18,0.1,73.43,-89.67,157.99,
4:10:12,-0.67,1.31,0.39,34.72,-37.24,88.13,
4:10:12,-0.78,0.64,0.34,-14.14,-3.5,74.76,
4:10:12,-0.92,0.29,0.14,-31.15,1.33,80.78,
4:10:12,-0.99,0.14,-0.1,-17.99,-14.7,81.76,
4:10:12,-0.95,0.1,-0.14,2.1,-26.88,77.35,
4:10:12,-0.86,0.2,-0.05,8.61,-31.85,54.88,
4:10:12,-0.77,0.35,0.02,4.34,-26.04,59.15,
4:10:12,-0.77,0.32,-0.04,10.29,-26.46,49.98,
4:10:12,-0.75,0.35,-0.07,17.5,-30.59,45.08,
4:10:12,-0.68,0.44,-0.1,22.12,-30.17,37.59,
4:10:12,-0.63,0.51,-0.12,31.57,-27.02,28.7,
4:10:12,-0.58,0.58,-0.12,41.86,-23.38,23.45,
4:10:12,-0.53,0.7,-0.07,44.03,-18.76,17.64,
4:10:12,-0.49,0.81,-0.04,39.34,-13.44,13.44,
4:10:12,-0.5,0.93,-0.03,28.35,-8.54,7.91,
4:10:12,-0.51,1.01,-0.03,9.8,-4.34,3.99,
4:10:12,-0.5,1.05,-0.01,-12.67,0.21,-0.56,
4:10:12,-0.5,1.04,0,-34.65,4.62,-7.91,
4:10:12,-0.51,0.98,0,-52.99,6.37,-17.36,
4:10:12,-0.5,0.91,0.02,-70.21,10.57,-22.75,
4:10:12,-0.5,0.84,0.02,-83.09,17.71,-29.05,
4:10:12,-0.51,0.8,0.01,-93.38,25.34,-33.88,
4:10:12,-0.55,0.74,0,-100.1,26.53,-37.73,
4:10:12,-0.59,0.68,0.02,-102.76,25.55,-41.16,
4:10:12,-0.61,0.65,0.04,-104.72,25.13,-44.24,
4:10:12,-0.72,0.68,-0.01,-107.1,17.64,-49.35,
4:10:12,-0.61,0.55,0.12,-108.29,21.14,-45.5,
4:10:12,-0.52,0.52,0.12,-110.18,28.42,-41.37,
4:10:12,-0.56,0.54,0.08,-97.37,30.03,-46.55,
4:10:12,-0.61,0.58,0.15,-87.29,35.21,-51.45,
4:10:12,-0.64,0.74,0.2,-83.51,47.39,-52.29,
4:10:12,-0.76,0.61,0.13,-73.71,49.77,-52.15,
4:10:12,-0.8,0.57,0.18,-59.5,45.22,-49,
4:10:12,-0.72,0.59,0.24,-44.45,54.25,-48.02,
4:10:12,-0.78,0.54,0.16,-22.19,55.86,-52.15,
4:10:12,-0.76,0.51,0.11,1.19,48.51,-51.73,
4:10:12,-0.79,0.49,0.06,32.62,38.64,-50.33,
4:10:12,-0.83,0.45,0,61.25,31.22,-49.21,
4:10:12,-0.86,0.38,-0.05,93.38,28.07,-46.41,
4:10:12,-0.97,0.34,-0.06,126.21,27.65,-47.81,
4:10:12,-1.14,0.32,0.1,138.95,29.68,-54.95,
4:10:12,-1.36,0.4,0.46,103.46,23.52,-72.31,
4:10:12,-1.54,0.4,0.9,25.97,19.25,-88.76,
4:10:12,-1.74,0.57,0.94,-44.52,8.89,-83.23,
4:10:12,-1.61,0.87,0.38,-32.48,10.22,-49.35,
4:10:12,-1.08,1.35,-0.45,42.14,16.73,16.52,
4:10:12,-0.79,1.65,-0.77,36.05,23.59,27.79,
4:10:12,-0.61,1.24,-0.64,59.15,12.67,9.38,
4:10:12,-0.41,0.88,-0.37,137.48,-0.42,8.33,
4:10:12,-0.31,0.69,-0.14,116.62,-4.55,11.83,
4:10:12,-0.31,0.54,-0.01,73.92,8.12,5.04,
4:10:12,-0.43,0.48,-0.04,32.62,22.75,-6.51,
4:10:12,-0.56,0.41,-0.12,-0.91,23.17,-18.13,
4:10:12,-0.62,0.36,-0.12,-33.46,19.81,-27.02,
4:10:12,-0.7,0.3,-0.12,-62.23,17.71,-22.19,
4:10:12,-0.77,0.27,-0.13,-77.28,18.13,-9.31,
4:10:12,-0.84,0.28,-0.19,-75.11,16.45,0.42,
4:10:12,-0.91,0.28,-0.27,-58.73,4.55,4.69,
4:10:12,-0.98,0.34,-0.33,-31.92,-8.68,7.14,
4:10:12,-1,0.44,-0.38,-15.75,-24.29,7.56,
4:10:12,-1.01,0.55,-0.41,-17.99,-29.82,7.56,
4:10:12,-1.01,0.62,-0.45,-26.6,-31.43,1.4,
4:10:12,-0.97,0.58,-0.47,-24.08,-30.66,-8.68,
4:10:12,-0.86,0.46,-0.42,-8.82,-21.91,-5.67,
4:10:12,-0.84,0.34,-0.48,22.75,-26.04,3.08,
4:10:12,-0.78,0.46,-0.37,35.7,-34.16,3.5,
4:10:12,-0.75,0.43,-0.3,46.2,-32.76,-6.44,
4:10:12,-0.74,0.42,-0.24,55.79,-24.78,-8.61,
4:10:12,-0.76,0.43,-0.25,58.52,-21.35,-6.16,
4:10:12,-0.76,0.5,-0.24,45.85,-21.35,-3.15,
4:10:12,-0.69,0.51,-0.29,25.55,-23.52,2.45,
4:10:12,-0.68,0.42,-0.42,43.89,-37.52,6.86,
4:10:12,-0.68,0.41,-0.51,94.71,-55.44,13.09,
4:10:12,-0.71,0.57,-0.51,134.12,-71.89,18.9,
4:10:12,-0.69,0.71,-0.46,119.84,-71.96,24.92,
4:10:12,-0.67,0.82,-0.42,85.47,-55.72,26.39,
4:10:12,-0.66,0.73,-0.46,74.06,-32.2,30.17,
4:10:12,-0.61,0.69,-0.48,89.74,-12.11,30.24,
4:10:12,-0.59,0.72,-0.47,99.19,2.38,22.05,
4:10:12,-0.58,0.72,-0.44,92.19,11.76,9.59,
4:10:12,-0.6,0.71,-0.41,77.98,21.28,2.24,
4:10:12,-0.65,0.72,-0.38,71.05,37.03,-2.38,
4:10:12,-0.71,0.7,-0.38,75.53,60.2,-6.23,
4:10:12,-0.73,0.67,-0.36,87.22,74.9,-9.03,
4:10:12,-0.73,0.61,-0.34,104.3,85.05,-13.72,
4:10:12,-0.75,0.58,-0.31,123.55,91.07,-17.85,
4:10:12,-0.78,0.56,-0.29,132.23,92.54,-19.95,
4:10:12,-0.8,0.54,-0.27,135.59,91.91,-19.04,
4:10:12,-0.83,0.54,-0.23,133.28,91.07,-13.93,
4:10:12,-0.83,0.55,-0.19,125.86,94.22,-8.26,
4:10:12,-0.85,0.57,-0.19,118.3,98.35,-3.36,
4:10:12,-0.87,0.59,-0.11,109.27,98.7,2.87,
4:10:12,-1.1,0.93,0.16,30.31,38.57,22.47,
4:10:12,-1.31,0.87,0.41,-98.42,-96.88,47.88,
4:10:12,-0.94,0.69,0.64,-65.59,-111.58,33.32,
4:10:12,-0.58,0.54,0.26,41.37,-58.94,-9.17,
4:10:12,-0.5,0.49,-0.05,95.41,-20.93,-20.93,
4:10:12,-0.63,0.6,-0.28,85.68,-9.38,-16.8,
4:10:12,-0.74,0.66,-0.49,46.2,-32.97,-8.82,
4:10:12,-0.77,0.64,-0.59,20.37,-65.17,-2.38,
4:10:12,-0.71,0.59,-0.57,28.21,-82.25,-4.97,
4:10:12,-0.64,0.58,-0.49,38.22,-79.8,-3.64,
4:10:12,-0.59,0.65,-0.44,33.46,-63.35,-2.31,
4:10:12,-0.58,0.68,-0.42,23.03,-49.28,-8.68,
4:10:12,-0.56,0.67,-0.41,14.35,-37.52,-11.13,
4:10:12,-0.55,0.68,-0.4,6.93,-29.12,-12.04,
4:10:12,-0.55,0.72,-0.39,1.33,-19.53,-16.59,
4:10:12,-0.56,0.74,-0.38,-0.63,-12.04,-21.91,
4:10:12,-0.56,0.73,-0.39,-1.54,-5.81,-20.02,
4:10:12,-0.56,0.74,-0.38,-1.26,0.49,-16.66,
4:10:12,-0.54,0.72,-0.39,3.57,6.02,-13.65,
4:10:12,-0.53,0.72,-0.4,10.43,9.17,-12.46,
4:10:12,-0.52,0.74,-0.4,10.57,11.2,-10.29,
4:10:12,-0.54,0.76,-0.4,8.61,13.65,-5.25,
4:10:12,-0.59,0.79,-0.38,12.53,16.17,0.14,
4:10:12,-0.63,0.82,-0.35,20.44,20.3,7,
4:10:12,-0.66,0.85,-0.3,27.79,25.13,10.43,
4:10:12,-0.7,0.86,-0.23,31.43,28.28,12.6,
4:10:12,-0.99,0.99,-0.07,13.09,1.68,14.84,
4:10:12,-1.12,0.95,0.28,-45.99,-39.83,22.96,
4:10:12,-1.16,0.82,0.47,-63.84,-48.79,38.29,
4:10:12,-1.09,0.78,0.33,-52.36,-33.53,45.43,
4:10:12,-0.99,0.79,-0.04,-45.01,-29.75,53.48,
4:10:12,-0.99,0.81,-0.32,-42.07,-48.02,64.19,
4:10:12,-1.01,0.81,-0.27,-31.99,-69.86,75.04,
4:10:12,-1.03,0.8,-0.19,-15.61,-80.78,80.15,
4:10:12,-1.07,0.74,-0.02,-7.56,-89.6,81.9,
4:10:12,-1.1,0.68,0.06,-5.88,-101.36,79.52,
4:10:12,-1.1,0.58,0.04,-8.12,-97.58,76.02,
4:10:12,-1.15,0.52,-0.04,-10.64,-90.16,70.21,
4:10:12,-1.19,0.43,-0.12,-2.73,-88.62,68.04,
4:10:12,-1.25,0.41,-0.13,4.13,-88.97,62.09,
4:10:12,-1.32,0.34,-0.14,15.61,-99.12,56.91,
4:10:12,-1.37,0.35,-0.06,16.87,-109.2,45.71,
4:10:12,-1.38,0.33,0.01,14.63,-114.94,30.59,
4:10:12,-1.34,0.21,0.03,20.44,-117.25,31.92,
4:10:12,-1.22,0.12,0.01,39.9,-121.66,50.33,
4:10:12,-1.06,0.13,-0.03,64.54,-122.01,68.53,
4:10:12,-1,0.33,-0.11,71.4,-128.94,66.29,
4:10:12,-0.95,0.42,-0.14,60.62,-132.09,54.67,
4:10:12,-0.91,0.47,-0.12,45.5,-123.13,48.02,
4:10:12,-0.85,0.5,-0.13,35.14,-111.02,49,
4:10:12,-0.85,0.53,-0.16,34.3,-109.83,49.28,
4:10:12,-0.76,0.57,-0.11,31.08,-106.19,50.96,
4:10:12,-0.71,0.62,-0.08,17.57,-96.39,51.73,
4:10:12,-0.71,0.6,-0.07,13.79,-90.58,52.99,
4:10:12,-0.72,0.6,-0.04,18.41,-89.04,54.46,
4:10:12,-0.74,0.56,0.01,26.11,-87.15,51.24,
4:10:12,-0.74,0.52,0.05,35.42,-78.96,48.3,
4:10:12,-0.78,0.47,0.05,41.65,-75.46,47.39,
4:10:12,-0.79,0.45,0.04,42.07,-70.63,43.89,
4:10:12,-0.75,0.39,0.01,37.31,-63.7,43.47,
4:10:12,-0.74,0.36,-0.02,39.06,-58.59,40.32,
4:10:12,-0.73,0.32,-0.02,49.98,-52.15,32.41,
4:10:12,-0.73,0.33,0.02,47.74,-45.78,27.23,
4:10:12,-0.74,0.35,0.05,32.55,-37.24,21.7,
4:10:12,-0.73,0.36,0.03,21.28,-29.4,12.88,
4:10:12,-0.72,0.35,-0.01,18.97,-26.95,2.94,
4:10:12,-0.7,0.35,-0.03,22.68,-28.91,-1.33,
4:10:12,-0.67,0.39,-0.02,27.16,-28.07,-7.84,
4:10:12,-0.65,0.45,-0.04,29.75,-26.88,-14.98,
4:10:12,-0.62,0.47,-0.04,29.89,-24.01,-20.02,
4:10:12,-0.59,0.51,-0.06,30.38,-17.15,-23.87,
4:10:12,-0.57,0.56,-0.07,30.59,-11.55,-29.4,
4:10:12,-0.58,0.59,-0.08,32.83,-9.8,-31.22,
4:10:12,-0.56,0.64,-0.08,34.37,-8.47,-32.41,
4:10:12,-0.53,0.68,-0.06,33.46,-3.71,-32.83,
4:10:12,-0.52,0.7,-0.05,34.44,-0.7,-34.16,
4:10:12,-0.5,0.75,-0.02,30.8,3.78,-35,
4:10:12,-0.51,0.76,-0.01,30.87,6.23,-38.15,
4:10:12,-0.54,0.75,-0.01,32.48,4.69,-37.17,
4:10:12,-0.56,0.77,0.02,30.24,2.52,-35.56,
4:10:12,-0.56,0.83,0.07,25.34,1.54,-35.91,
4:10:12,-0.58,0.89,0.13,17.64,1.26,-35.7,
4:10:12,-0.61,0.93,0.19,9.38,0.84,-34.3,
4:10:12,-0.61,0.98,0.24,4.76,2.8,-33.18,
4:10:12,-0.59,1.02,0.28,2.38,10.01,-31.5,
4:10:12,-0.62,1.03,0.26,3.85,15.12,-27.79,
4:10:12,-0.65,1.04,0.24,11.27,16.59,-25.69,
4:10:12,-0.67,1.02,0.23,17.92,18.41,-24.29,
4:10:12,-0.69,0.96,0.21,24.36,18.9,-22.96,
4:10:12,-0.7,0.87,0.19,29.82,18.34,-21.35,
4:10:12,-0.71,0.78,0.18,33.04,16.17,-19.88,
4:10:12,-0.72,0.71,0.15,37.1,15.26,-18.06,
4:10:12,-0.75,0.64,0.1,45.36,14.7,-17.22,
4:10:12,-0.78,0.62,0.04,57.19,14.21,-17.92,
4:10:12,-0.8,0.6,-0.02,66.99,16.73,-22.12,
4:10:12,-0.8,0.54,-0.07,74.83,18.76,-26.53,
4:10:12,-0.78,0.49,-0.05,74.76,20.93,-24.01,
4:10:12,-0.8,0.52,0,67.9,25.55,-20.02,
4:10:12,-0.86,0.59,0.13,40.18,22.19,-25.97,
4:10:12,-0.95,0.66,0.45,-4.55,18.69,-36.33,
4:10:12,-1.11,0.65,0.54,2.8,23.94,-28.42,
4:10:12,-1.09,0.82,0.24,56.7,20.37,-9.94,
4:10:12,-1.05,0.98,-0.06,69.93,25.76,0.35,
4:10:12,-1.13,1.02,-0.24,50.05,32.76,10.01,
4:10:12,-1.21,1.06,-0.31,34.16,33.18,13.44,
4:10:12,-1.2,1.06,-0.33,28.84,27.72,13.09,
4:10:12,-1.09,1.02,-0.27,21.35,20.02,-6.72,
4:10:12,-0.93,0.84,-0.18,18.97,17.36,-22.54,
4:10:12,-0.78,0.64,-0.1,20.65,21.63,-19.46,
4:10:12,-0.67,0.5,-0.08,24.36,27.23,-11.13,
4:10:12,-0.58,0.39,-0.07,28.7,29.89,-2.1,
4:10:12,-0.51,0.33,-0.08,31.5,30.03,3.08,
4:10:12,-0.47,0.28,-0.11,30.45,26.81,5.25,
4:10:12,-0.49,0.27,-0.15,22.33,15.75,5.6,
4:10:12,-0.53,0.26,-0.16,9.24,-4.62,5.6,
4:10:12,-0.57,0.26,-0.17,-2.59,-20.37,4.41,
4:10:12,-0.67,0.29,-0.22,-10.01,-35.42,4.27,
4:10:12,-0.8,0.32,-0.28,-9.1,-49.35,5.81,
4:10:12,-0.98,0.34,-0.36,7.07,-61.18,3.15,
4:10:12,-1.14,0.35,-0.44,35.98,-69.23,1.96,
4:10:12,-1.26,0.33,-0.52,70.35,-79.73,4.83,
4:10:12,-1.25,0.28,-0.5,101.43,-87.99,11.2,
4:10:12,-1.06,0.21,-0.42,126.42,-86.24,28.35,
4:10:12,-0.9,0.32,-0.36,137.41,-79.66,34.51,
4:10:12,-0.82,0.32,-0.43,138.04,-85.75,36.68,
4:10:12,-0.77,0.35,-0.49,136.43,-104.37,42.56,
4:10:12,-0.73,0.43,-0.45,122.5,-123.83,45.5,
4:10:12,-0.75,0.46,-0.45,110.46,-127.05,41.86,
4:10:12,-0.76,0.48,-0.45,109.76,-120.47,34.23,
4:10:12,-0.76,0.57,-0.42,89.46,-104.93,26.81,
4:10:12,-0.78,0.68,-0.41,49.63,-85.26,15.82,
4:10:12,-0.78,0.77,-0.4,-4.55,-62.79,0.77,
4:10:12,-0.73,0.67,-0.41,-31.29,-31.22,-12.46,
4:10:12,-0.69,0.6,-0.4,-28.35,5.53,-23.45,
4:10:12,-0.67,0.58,-0.4,-20.37,38.85,-32.69,
4:10:12,-0.71,0.52,-0.45,-5.6,52.43,-28.7,
4:10:12,-0.68,0.58,-0.4,3.92,55.86,-23.73,
4:10:12,-0.63,0.62,-0.37,-1.33,62.79,-19.04,
4:10:12,-0.64,0.67,-0.35,-7.21,71.26,-21.77,
4:10:12,-0.67,0.69,-0.36,-11.2,74.55,-25.62,
4:10:12,-0.7,0.71,-0.36,-8.89,75.39,-27.02,
4:10:12,-0.7,0.7,-0.33,0.49,77.56,-22.26,
4:10:12,-0.71,0.7,-0.32,14.98,80.43,-15.61,
4:10:12,-0.71,0.68,-0.31,34.3,80.15,-11.06,
4:10:12,-0.71,0.67,-0.29,52.01,76.3,-8.12,
4:10:12,-0.7,0.66,-0.28,64.47,70.7,-7.56,
4:10:12,-0.72,0.63,-0.28,74.48,59.71,-5.04,
4:10:12,-0.74,0.6,-0.26,82.67,46.76,0.7,
4:10:12,-0.75,0.6,-0.23,88.69,37.73,4.62,
4:10:12,-0.77,0.62,-0.21,93.17,31.01,6.23,
4:10:12,-0.79,0.63,-0.2,95.83,23.1,4.76,
4:10:12,-0.8,0.63,-0.19,95.13,13.72,4.41,
4:10:12,-0.81,0.65,-0.19,90.72,2.31,0,
4:10:12,-0.79,0.64,-0.17,80.08,-10.08,-6.37,
4:10:12,-0.76,0.62,-0.13,64.75,-15.12,-7,
4:10:12,-0.73,0.65,-0.11,45.36,-16.59,-6.02,
4:10:12,-0.71,0.68,-0.14,23.66,-19.11,-7.77,
4:10:12,-0.69,0.67,-0.22,14.77,-24.29,-11.55,
4:10:12,-0.69,0.69,-0.27,9.94,-29.4,-13.72,
4:10:12,-0.69,0.72,-0.29,0.84,-32.13,-13.02,
4:10:12,-0.68,0.72,-0.3,-6.72,-30.73,-10.92,
4:10:12,-0.65,0.69,-0.33,-4.27,-28.56,-10.36,
4:10:12,-0.64,0.66,-0.37,4.34,-29.47,-12.81,
4:10:12,-0.62,0.63,-0.37,11.55,-32.9,-13.02,
4:10:12,-0.61,0.65,-0.38,9.31,-32.83,-9.38,
4:10:12,-0.61,0.66,-0.38,-16.73,-31.78,-5.39,
4:10:12,-0.59,0.73,-0.36,-8.05,-23.52,-7.14,
4:10:12,-0.57,0.75,-0.36,-14,-14.28,-13.09,
4:10:12,-0.54,0.74,-0.36,-16.66,-5.39,-16.45,
4:10:12,-0.53,0.73,-0.37,-17.22,-0.91,-16.8,
4:10:12,-0.52,0.72,-0.37,-15.68,0.49,-15.61,
4:10:12,-0.52,0.74,-0.37,-13.16,-0.14,-14.84,
4:10:12,-0.53,0.78,-0.37,-10.43,-1.75,-15.12,
4:10:12,-0.54,0.8,-0.34,-10.5,0.77,-14.63,
4:10:12,-0.55,0.84,-0.34,-16.66,8.47,-12.6,
4:10:12,-0.6,0.85,-0.34,-21.14,16.45,-12.95,
4:10:12,-0.62,0.83,-0.33,-20.37,22.82,-14.28,
4:10:12,-0.62,0.83,-0.32,-22.47,25.9,-14.63,
4:10:12,-0.65,0.84,-0.3,-29.26,26.32,-14.21,
4:10:12,-0.7,0.85,-0.3,-32.55,26.11,-11.76,
4:10:12,-0.77,0.88,-0.28,-35.49,28.49,-3.36,
4:10:12,-0.84,0.93,-0.23,-37.03,32.06,2.24,
4:10:12,-0.95,1.01,-0.16,-49.07,26.81,-1.4,
4:10:12,-1.26,1.17,0.08,-105.42,-23.45,-21,
4:10:12,-1.5,0.92,0.36,-111.37,-99.19,-9.17,
4:10:12,-1.35,0.83,0.48,-98.91,-117.74,9.52,
4:10:12,-1.03,0.85,0.34,-105.91,-76.93,22.82,
4:10:12,-0.85,0.86,0.07,-124.25,-56.56,32.83,
4:10:12,-0.81,0.85,-0.08,-132.3,-80.92,33.32,
4:10:12,-0.72,0.77,-0.08,-125.16,-90.79,28.84,
4:10:12,-0.61,0.72,-0.15,-119.28,-72.59,28.63,
4:10:12,-0.64,0.69,-0.33,-126.98,-57.75,31.78,
4:10:12,-0.63,0.63,-0.41,-127.68,-46.13,36.47,
4:10:12,-0.71,0.6,-0.51,-123.76,-42.28,42.84,
4:10:12,-0.81,0.58,-0.53,-109.76,-47.11,48.86,
4:10:12,-0.89,0.54,-0.54,-80.85,-52.15,53.83,
4:10:12,-0.94,0.5,-0.53,-45.78,-58.73,52.15,
4:10:12,-0.91,0.47,-0.47,-22.19,-59.78,49.28,
4:10:12,-0.89,0.43,-0.44,-6.79,-54.74,46.69,
4:10:12,-0.88,0.43,-0.4,-1.96,-44.17,47.18,
4:10:12,-0.87,0.43,-0.37,-4.41,-32.76,49.42,
4:10:12,-0.9,0.44,-0.39,-13.23,-28.63,55.23,
4:10:12,-0.88,0.56,-0.33,-26.25,-31.78,57.19,
4:10:12,-0.81,0.67,-0.28,-30.52,-22.54,50.05,
4:10:12,-0.75,0.76,-0.26,-40.81,-8.05,46.34,
4:10:12,-0.65,0.82,-0.22,-51.8,13.79,48.16,
4:10:12,-0.55,0.81,-0.23,-39.48,36.05,52.64,
4:10:12,-0.45,0.79,-0.3,-9.31,45.43,66.43,
4:10:12,-0.41,0.81,-0.32,21.35,26.81,107.03,
4:10:12,-0.44,0.86,-0.33,35,-11.62,126.35,
4:10:12,-0.48,0.98,-0.24,38.29,-32.76,104.23,
4:10:12,-0.53,0.89,-0.17,33.25,8.61,54.88,
4:10:12,-0.69,0.67,-0.11,22.61,42.14,48.3,
4:10:12,-0.74,0.64,-0.01,-25.27,63.56,56.28,
4:10:12,-0.7,0.57,0.05,-87.71,91.56,48.86,
4:10:12,-0.68,0.43,-0.08,-84.28,105,45.5,
4:10:12,-0.71,0.33,-0.24,-74.41,101.78,42.42,
4:10:12,-0.75,0.34,-0.29,-69.51,96.39,33.6,
4:10:12,-0.74,0.31,-0.27,-69.65,97.86,22.12,
4:10:12,-0.76,0.22,-0.28,-60.13,93.24,13.79,
4:10:12,-0.78,0.14,-0.27,-41.79,86.59,8.96,
4:10:12,-0.8,0.12,-0.23,-25.62,77.98,2.52,
4:10:12,-0.8,0.14,-0.18,-20.3,73.36,-6.02,
4:10:12,-0.79,0.13,-0.14,-24.15,73.78,-13.09,
4:10:12,-0.76,0.21,-0.1,-41.79,80.99,-21,
4:10:12,-0.8,0.32,-0.08,-59.43,82.39,-35.28,
4:10:12,-0.73,0.41,0,-78.61,89.95,-46.69,
4:10:12,-0.74,0.48,0.05,-90.51,92.4,-50.75,
4:10:12,-0.77,0.56,0.1,-90.37,85.61,-53.27,
4:10:12,-0.82,0.71,0.2,-102.48,69.93,-52.5,
4:10:12,-0.84,0.82,0.3,-110.32,52.64,-39.41,
4:10:12,-0.79,0.97,0.33,-112.28,42.98,-21.84,
4:10:12,-0.67,1.1,0.28,-104.37,42.14,-3.01,
4:10:12,-0.51,1.22,0.18,-92.82,50.54,10.64,
4:10:12,-0.38,1.31,0.03,-77.56,68.25,13.58,
4:10:12,-0.34,1.35,-0.15,-59.29,83.3,-2.17,
4:10:12,-0.36,1.22,-0.28,-37.45,85.4,-17.85,
4:10:12,-0.4,1,-0.26,-27.79,83.44,-6.93,
4:10:12,-0.41,0.96,-0.21,-25.69,80.5,0.28,
4:10:12,-0.43,0.94,-0.14,-21.49,77.35,4.13,
4:10:12,-0.49,0.92,-0.04,-23.52,70.84,9.1,
4:10:12,-0.55,0.89,0.06,-28.98,61.53,14.21,
4:10:12,-0.59,0.84,0.07,-33.67,49.56,20.09,
4:10:12,-0.62,0.82,0.03,-34.58,40.39,23.73,
4:10:12,-0.66,0.79,-0.1,-26.88,39.9,21.84,
4:10:12,-0.73,0.74,-0.26,-6.09,47.11,16.59,
4:10:12,-0.79,0.75,-0.35,10.78,55.37,3.92,
4:10:12,-0.8,0.7,-0.33,0.14,62.86,-8.47,
4:10:12,-0.91,0.74,-0.25,-20.86,69.86,-18.41,
4:10:12,-1.02,0.77,-0.09,-48.72,69.51,-34.09,
4:10:12,-1.22,0.84,0.06,-69.16,57.82,-35.21,
4:10:12,-1.37,1.03,0.1,-83.65,24.01,-2.8,
4:10:12,-1.28,1.14,0.05,-59.29,6.79,34.02,
4:10:27,-0.49,0.6,-0.09,22.54,21.77,-29.47,
4:10:27,-0.51,0.57,-0.08,26.32,15.75,-38.85,
4:10:27,-0.52,0.57,-0.06,32.41,11.27,-42.28,
4:10:27,-0.48,0.6,-0.02,35.77,9.45,-45.36,
4:10:27,-0.42,0.68,0.01,37.59,7.77,-46.76,
4:10:27,-0.31,0.81,0.06,38.92,9.59,-47.88,
4:10:27,-0.17,0.97,0.1,33.32,13.79,-48.09,
4:10:27,-0.02,1.16,0.15,28.56,17.71,-46.41,
4:10:27,0.17,1.37,0.21,25.41,23.31,-41.16,
4:10:27,0.39,1.52,0.23,24.64,34.37,-32.9,
4:10:27,0.58,1.56,0.19,26.74,49.42,-23.94,
4:10:27,0.62,1.54,0.15,25.62,61.74,-24.08,
4:10:27,0.52,1.39,0.14,11.55,69.3,-25.41,
4:10:27,0.37,1.25,0.12,-6.37,71.19,-22.96,
4:10:27,0.26,1.14,0.07,-13.51,72.66,-17.36,
4:10:27,0.11,1.06,-0.01,-13.93,69.23,-15.68,
4:10:27,-0.08,0.94,-0.14,-6.65,58.45,-12.18,
4:10:27,-0.27,0.87,-0.23,9.8,37.87,-9.59,
4:10:27,-0.48,0.9,-0.3,39.34,17.78,-15.26,
4:10:27,-0.63,0.94,-0.28,62.93,-1.54,-20.23,
4:10:27,-0.67,0.9,-0.1,61.6,-15.89,-18.06,
4:10:27,-0.63,0.84,0.15,38.57,-11.62,-18.34,
4:10:27,-0.6,0.86,0.35,14.7,22.33,-31.71,
4:10:27,-0.55,0.93,0.45,-4.76,48.72,-49.07,
4:10:27,-0.6,1.24,0.27,-8.61,44.52,-61.46,
4:10:27,-0.57,1.48,-0.09,21.14,13.93,-33.88,
4:10:27,-0.55,1.73,-0.44,36.89,3.01,-9.1,
4:10:27,-0.48,1.98,-0.65,-7.28,-10.08,12.04,
4:10:27,-0.22,1.77,-0.62,-8.05,-24.36,5.18,
4:10:27,-0.04,1.4,-0.43,23.24,-31.57,-19.18,
4:10:27,0.02,0.99,-0.26,39.76,-47.67,-25.62,
4:10:27,-0.03,0.51,-0.08,39.48,-63.49,-19.53,
4:10:27,-0.15,0.42,0.06,23.38,-63.84,-5.25,
4:10:27,-0.27,0.33,0.08,6.16,-51.87,14.77,
4:10:27,-0.5,0.4,0.02,2.17,-32.06,24.08,
4:10:27,-0.48,0.47,-0.02,-4.55,-24.64,22.33,
4:10:27,-0.53,0.54,-0.07,-12.6,-23.24,14.42,
4:10:27,-0.58,0.63,-0.08,-22.96,-25.06,5.11,
4:10:27,-0.61,0.71,-0.1,-33.74,-30.03,-2.87,
4:10:27,-0.63,0.78,-0.13,-34.58,-34.3,-7.42,
4:10:27,-0.64,0.88,-0.18,-30.38,-35.49,-11.34,
4:10:27,-0.64,0.97,-0.19,-31.01,-32.48,-18.27,
4:10:27,-0.64,1,-0.22,-40.18,-22.61,-21.14,
4:10:27,-0.63,0.96,-0.26,-40.11,-10.43,-29.54,
4:10:27,-0.56,0.87,-0.28,-32.27,3.29,-36.19,
4:10:27,-0.44,0.85,-0.25,-40.25,21.42,-40.88,
4:10:27,-0.36,0.83,-0.25,-55.37,38.92,-43.75,
4:10:27,-0.27,0.86,-0.22,-69.79,65.8,-44.59,
4:10:27,-0.22,0.9,-0.22,-81.62,92.05,-45.29,
4:10:27,-0.24,0.94,-0.26,-82.04,108.5,-47.25,
4:10:27,-0.26,0.95,-0.27,-71.75,105.35,-43.61,
4:10:27,-0.24,0.92,-0.28,-53.55,97.93,-37.03,
4:10:27,-0.23,0.92,-0.27,-28.63,89.67,-37.94,
4:10:27,-0.19,0.9,-0.24,-16.38,81.76,-39.2,
4:10:27,-0.21,0.94,-0.28,-22.12,67.41,-40.11,
4:10:27,-0.26,0.95,-0.3,-35,44.66,-37.24,
4:10:27,-0.27,0.92,-0.3,-37.24,25.06,-27.93,
4:10:27,-0.25,0.86,-0.36,-19.04,7.91,-14.98,
4:10:27,-0.25,0.84,-0.51,24.71,-23.1,-2.1,
4:10:27,-0.17,0.86,-0.53,63.35,-67.69,5.04,
4:10:27,-0.05,0.84,-0.43,77.56,-81.2,16.59,
4:10:27,-0.03,0.83,-0.42,77.7,-84.77,22.05,
4:10:27,-0.08,0.86,-0.45,88.69,-96.32,17.85,
4:10:27,-0.14,0.91,-0.42,96.04,-106.82,8.75,
4:10:27,-0.19,0.9,-0.26,103.6,-116.41,0.63,
4:10:27,-0.21,0.9,-0.29,115.22,-115.78,-3.92,
4:10:27,-0.26,0.91,-0.25,130.97,-107.73,-7.7,
4:10:27,-0.33,0.92,-0.22,147.56,-97.86,-14.21,
4:10:27,-0.37,0.97,-0.18,158.27,-86.38,-22.4,
4:10:27,-0.39,1.01,-0.15,159.11,-69.02,-27.79,
4:10:27,-0.43,1.02,-0.13,154.84,-43.89,-31.08,
4:10:27,-0.45,1.03,-0.12,146.02,-24.43,-30.66,
4:10:27,-0.47,1.01,-0.11,131.25,-8.61,-25.83,
4:10:27,-0.46,1.02,-0.09,113.68,5.6,-23.52,
4:10:27,-0.44,1,-0.04,97.86,22.89,-26.6,
4:10:27,-0.42,0.97,-0.02,81.34,39.41,-35.84,
4:10:27,-0.39,0.94,0.01,60.97,46.76,-41.58,
4:10:27,-0.23,0.96,0.26,30.1,63.63,-44.94,
4:10:27,-0.09,0.98,0.3,4.48,101.71,-48.79,
4:10:27,-0.13,0.98,0.05,-14.28,92.89,-48.44,
4:10:27,-0.18,0.96,-0.16,-26.25,53.06,-44.59,
4:10:27,-0.15,0.94,-0.24,-34.37,11.62,-37.66,
4:10:27,-0.11,0.93,-0.24,-45.08,-16.24,-29.54,
4:10:27,-0.06,0.91,-0.2,-62.79,-19.81,-19.67,
4:10:27,-0.05,0.94,-0.22,-73.01,-9.73,-15.19,
4:10:27,-0.05,0.98,-0.25,-73.92,7,-17.92,
4:10:27,-0.04,0.99,-0.3,-66.01,32.48,-22.47,
4:10:27,-0.1,0.97,-0.41,-47.39,44.87,-21.56,
4:10:27,-0.15,0.96,-0.52,-28.35,33.81,-15.47,
4:10:27,-0.18,0.97,-0.56,-16.24,8.33,-7.63,
4:10:27,-0.21,0.99,-0.56,-9.17,-27.02,-2.94,
4:10:27,-0.18,1.01,-0.48,-4.2,-41.3,0,
4:10:27,-0.16,1.03,-0.38,1.96,-37.73,2.66,
4:10:27,-0.17,1.06,-0.3,4.13,-26.95,3.15,
4:10:27,-0.19,1.08,-0.24,3.36,-13.93,5.67,
4:10:27,-0.22,1.11,-0.19,6.02,-0.98,10.29,
4:10:27,-0.25,1.12,-0.15,14.98,7.77,17.29,
4:10:27,-0.36,1.22,-0.05,14.63,-14.35,29.96,
4:10:27,-0.51,1.56,0.82,-42.7,-92.82,63,
4:10:27,-0.32,1.79,0.98,-83.79,-86.45,76.44,
4:10:27,-0.13,1.33,0.36,-83.86,-46.83,64.75,
4:10:27,-0.14,1.14,-0.01,-115.29,-0.07,54.67,
4:10:27,-0.27,1.04,-0.25,-136.71,8.4,65.66,
4:10:27,-0.34,1,-0.32,-124.67,-13.23,78.4,
4:10:27,-0.38,1.01,-0.28,-97.93,-36.54,79.8,
4:10:27,-0.46,1.04,-0.19,-75.95,-50.68,81.13,
4:10:27,-0.61,1.09,-0.11,-59.01,-60.34,79.38,
4:10:27,-0.75,1.12,-0.03,-50.82,-65.03,73.57,
4:10:27,-0.86,1.11,-0.03,-46.2,-65.45,65.03,
4:10:27,-0.91,1.03,-0.12,-47.32,-70.91,59.15,
4:10:27,-0.92,0.87,-0.18,-39.76,-77.42,60.06,
4:10:27,-0.9,0.74,-0.21,-23.8,-91.98,86.52,
4:10:27,-0.84,0.72,-0.2,-13.72,-109.34,82.11,
4:10:27,-0.74,0.76,-0.15,-6.72,-124.95,75.18,
4:10:27,-0.62,0.77,-0.08,-9.24,-125.02,61.11,
4:10:27,-0.53,0.77,-0.11,-17.43,-110.18,54.04,
4:10:27,-0.44,0.79,-0.2,-11.2,-91,45.78,
4:10:27,-0.33,0.92,-0.23,-4.62,-62.51,31.29,
4:10:27,-0.3,0.97,-0.28,-24.08,-55.58,40.74,
4:10:27,-0.28,0.97,-0.31,-24.15,-81.06,66.29,
4:10:27,-0.14,0.95,-0.27,6.02,-102.97,66.92,
4:10:27,0.02,0.95,-0.15,29.05,-108.01,63.14,
4:10:27,0.14,0.95,0.03,37.8,-85.4,58.59,
4:10:27,0.24,0.94,0.18,31.15,-36.4,61.6,
4:10:27,0.15,0.93,0.16,23.52,-4.83,65.59,
4:10:27,-0.06,0.9,0.09,18.62,11.27,66.5,
4:10:27,-0.21,0.89,0.07,10.71,50.33,61.88,
4:10:27,-0.32,0.79,-0.01,7.07,55.44,47.04,
4:10:27,-0.33,0.74,-0.03,11.41,63.91,32.55,
4:10:27,-0.31,0.71,-0.02,11.97,71.4,21.91,
4:10:27,-0.32,0.66,-0.07,8.68,70.84,22.4,
4:10:27,-0.38,0.67,-0.08,3.22,64.05,21.77,
4:10:27,-0.42,0.65,-0.08,3.5,58.45,14.35,
4:10:27,-0.46,0.63,-0.08,6.72,50.26,7.42,
4:10:27,-0.49,0.61,-0.07,10.36,39.62,-0.28,
4:10:27,-0.48,0.61,-0.07,13.93,29.89,-5.67,
4:10:27,-0.45,0.61,-0.04,17.29,25.27,-16.87,
4:10:27,-0.42,0.61,-0.04,18.9,26.46,-23.52,
4:10:27,-0.44,0.62,-0.07,24.43,22.96,-28,
4:10:27,-0.41,0.64,-0.07,33.53,20.44,-32.06,
4:10:27,-0.37,0.69,-0.05,42.56,18.41,-33.32,
4:10:27,-0.3,0.79,-0.01,46.13,15.4,-31.99,
4:10:27,-0.23,0.94,0.06,40.6,11.83,-32.48,
4:10:27,-0.13,1.06,0.11,31.22,9.17,-32.34,
4:10:27,-0.02,1.15,0.14,26.95,6.93,-31.57,
4:10:27,0.1,1.25,0.16,24.92,8.12,-27.93,
4:10:27,0.22,1.33,0.15,24.78,6.65,-22.61,
4:10:27,0.35,1.41,0.13,27.58,4.27,-16.87,
4:10:27,0.5,1.46,0.13,28.21,8.75,-11.69,
4:10:27,0.57,1.41,0.14,26.04,25.2,-11.06,
4:10:27,0.51,1.38,0.19,17.85,49.21,-13.79,
4:10:27,0.26,1.32,0.18,-2.52,74.62,-13.65,
4:10:27,0.19,1.22,0.11,-16.31,79.66,-13.51,
4:10:27,0.06,1.17,0.02,-21.21,76.44,-14.84,
4:10:27,-0.08,1.15,-0.12,-22.05,63.7,-13.79,
4:10:27,-0.25,1.11,-0.32,-11.69,47.53,-15.12,
4:10:27,-0.46,1.07,-0.44,7.98,21.7,-14.91,
4:10:27,-0.57,1.02,-0.3,22.12,-3.99,-9.45,
4:10:27,-0.62,0.88,-0.02,30.38,-12.81,0.07,
4:10:27,-0.64,0.76,0.17,30.94,-15.33,5.53,
4:10:27,-0.73,1.11,0.4,29.61,-10.78,-14,
4:10:27,-0.9,1.56,0.74,-6.3,18.97,-38.01,
4:10:27,-1.04,1.57,0.38,-50.19,38.01,-43.54,
4:10:27,-0.54,1.35,-0.36,-51.59,-16.31,-15.68,
4:10:27,-0.15,1.29,-0.49,-29.4,-19.67,-16.45,
4:10:27,-0.22,1.05,-0.42,-3.08,1.05,-45.22,
4:10:27,-0.28,0.73,-0.33,13.58,5.88,-46.34,
4:10:27,-0.29,0.55,-0.24,12.88,2.87,-28.42,
4:10:27,-0.34,0.52,-0.17,-7.28,-9.59,-15.19,
4:10:27,-0.4,0.57,-0.12,-22.89,-25.13,-11.41,
4:10:27,-0.45,0.62,-0.09,-28.49,-37.66,-12.81,
4:10:27,-0.49,0.67,-0.07,-28.07,-42.98,-15.54,
4:10:27,-0.49,0.73,-0.04,-28.28,-41.86,-18.76,
4:10:27,-0.48,0.78,-0.02,-37.8,-33.32,-21.98,
4:10:27,-0.48,0.81,-0.06,-47.74,-25.34,-24.36,
4:10:27,-0.49,0.85,-0.15,-45.29,-22.75,-24.08,
4:10:27,-0.47,0.91,-0.2,-42.56,-26.04,-21.07,
4:10:27,-0.48,0.96,-0.27,-41.86,-30.66,-22.47,
4:10:27,-0.48,0.95,-0.3,-33.18,-33.88,-24.36,
4:10:27,-0.48,0.91,-0.33,-15.54,-34.02,-19.74,
4:10:27,-0.45,0.82,-0.3,5.25,-29.96,-14.49,
4:10:27,-0.43,0.78,-0.29,13.79,-21.77,-14.7,
4:10:27,-0.41,0.72,-0.31,12.46,-18.9,-16.17,
4:10:27,-0.43,0.71,-0.37,17.29,-29.12,-18.27,
4:10:27,-0.37,0.73,-0.36,25.76,-39.83,-17.57,
4:10:27,-0.26,0.85,-0.22,14.98,-29.33,-21.77,
4:10:27,-0.23,0.9,-0.16,-12.04,-10.08,-24.36,
4:10:27,-0.22,0.88,-0.18,-21.42,10.36,-29.47,
4:10:27,-0.28,0.81,-0.25,-9.66,15.68,-27.58,
4:10:27,-0.37,0.83,-0.36,8.26,2.94,-23.45,
4:10:27,-0.33,0.95,-0.27,13.58,-2.52,-21.63,
4:10:27,-0.25,1.04,-0.2,2.31,14.98,-27.37,
4:10:27,-0.21,0.97,-0.24,2.52,35.49,-28.28,
4:10:27,-0.17,0.91,-0.37,24.01,48.37,-21.35,
4:10:27,-0.15,0.88,-0.5,56.35,21.35,-6.58,
4:10:27,-0.1,0.9,-0.5,75.11,18.48,3.92,
4:10:27,-0.08,0.94,-0.45,74.76,2.52,1.19,
4:10:27,-0.09,0.96,-0.38,84.42,-9.1,-15.54,
4:10:27,-0.09,0.99,-0.29,103.46,-10.36,-28.77,
4:10:27,-0.12,0.93,-0.26,124.39,-8.54,-27.16,
4:10:27,-0.16,0.95,-0.23,140.14,-9.94,-24.29,
4:10:27,-0.19,0.99,-0.17,141.4,-9.45,-27.79,
4:10:27,-0.23,0.97,-0.15,138.6,-7.21,-27.72,
4:10:27,-0.28,0.95,-0.15,139.37,-6.3,-26.11,
4:10:27,-0.33,0.96,-0.15,143.22,-8.19,-26.18,
4:10:27,-0.38,0.94,-0.15,149.31,-13.58,-25.55,
4:10:27,-0.42,0.95,-0.13,155.96,-20.44,-19.67,
4:10:27,-0.43,0.99,-0.12,156.1,-28.98,-14.84,
4:10:27,-0.43,1.01,-0.07,150.57,-35.98,-14.28,
4:10:27,-0.34,1.02,0.42,141.68,-1.47,-22.4,
4:10:27,-0.18,1.25,1.1,24.92,75.74,-29.54,
4:10:27,-0.3,1.06,0.19,-23.73,0.14,-24.15,
4:10:27,-0.24,1,-0.1,-18.41,-50.89,-25.76,
4:10:27,-0.23,0.96,-0.28,-34.44,-75.11,-20.51,
4:10:27,-0.16,0.94,-0.28,-55.58,-85.68,-11.62,
4:10:27,-0.11,0.95,-0.29,-61.46,-77.77,-11.2,
4:10:27,-0.09,1,-0.31,-63.35,-64.12,-14.91,
4:10:27,-0.06,1.07,-0.3,-65.24,-43.61,-18.13,
4:10:27,-0.03,1.11,-0.32,-74.06,-15.33,-20.16,
4:10:27,0.02,1.11,-0.39,-71.12,22.82,-18.2,
4:10:27,0.01,1.12,-0.43,-54.11,42.7,-22.47,
4:10:27,0.02,1.08,-0.47,-36.82,53.34,-24.08,
4:10:27,0.02,1.04,-0.49,-19.11,51.94,-20.23,
4:10:27,0.05,1.09,-0.44,-17.5,51.87,-17.29,
4:10:27,0.06,1.13,-0.39,-17.85,52.99,-19.04,
4:10:27,0.04,1.12,-0.3,-10.08,53.48,-22.61,
4:10:27,0.01,1.04,-0.22,10.71,50.54,-18.34,
4:10:27,-0.13,1.01,-0.16,35.42,16.03,0.49,
4:10:27,-0.57,1.13,0.16,20.72,-159.11,70.84,
4:10:27,-0.28,1.77,1.62,-33.25,-197.89,64.54,
4:10:27,0.13,1.41,0.81,-82.81,-81.06,50.4,
4:10:27,0.22,1.22,0.37,-128.59,15.82,60.55,
4:10:27,-0.05,1.15,0.08,-143.57,38.43,77,
4:10:27,-0.2,1.25,-0.06,-135.52,22.26,96.46,
4:10:27,-0.27,1.26,-0.15,-130.76,16.38,98.42,
4:10:27,-0.35,1.27,-0.31,-129.64,26.6,97.65,
4:10:27,-0.56,1.32,-0.54,-116.34,15.26,94.29,
4:10:27,-0.75,1.34,-0.7,-91.84,-19.18,83.65,
4:10:27,-0.89,1.3,-0.78,-57.47,-69.16,75.46,
4:10:27,-1,1.21,-0.71,-17.08,-112.77,79.73,
4:10:27,-1.01,1.06,-0.47,26.6,-133.91,99.82,
4:10:27,-1.02,1.01,-0.01,53.76,-121.87,105.49,
4:10:27,-1.04,1.13,0.74,-12.04,-66.29,88.76,
4:10:27,-0.89,0.93,0.2,-47.74,-59.92,73.29,
4:10:27,-0.61,0.83,-0.05,-19.04,-84.21,59.99,
4:10:27,-0.55,0.85,-0.2,-1.61,-89.81,56.42,
4:10:27,-0.49,0.84,-0.25,-10.01,-92.61,52.08,
4:10:27,-0.35,0.78,-0.21,-23.73,-82.67,54.18,
4:10:27,-0.24,0.76,-0.22,-15.82,-54.74,54.04,
4:10:27,-0.15,0.76,-0.25,6.58,-32.76,50.54,
4:10:27,-0.09,0.82,-0.23,14.49,-23.03,50.89,
4:10:27,0.01,0.91,-0.06,2.17,-37.03,67.76,
4:10:27,0.1,0.97,0.14,-7.98,-43.12,79.24,
4:10:27,0.12,1.01,0.19,-13.37,-15.54,81.34,
4:10:27,-0.04,1.02,0.14,-21.77,33.39,73.15,
4:10:27,-0.21,0.93,0,-24.71,80.08,64.68,
4:10:27,-0.34,0.88,-0.1,-24.36,106.96,55.93,
4:10:27,-0.48,0.78,-0.19,-25.9,104.79,52.5,
4:10:27,-0.6,0.67,-0.24,-23.03,84.21,50.19,
4:10:27,-0.63,0.59,-0.2,-18.06,70.21,46.48,
4:10:27,-0.64,0.51,-0.2,-16.59,57.4,42.56,
4:10:27,-0.66,0.41,-0.17,-7.07,42.63,41.44,
4:10:27,-0.69,0.39,-0.11,3.22,25.2,37.17,
4:10:27,-0.67,0.38,-0.09,14.91,9.59,29.96,
4:10:27,-0.61,0.44,-0.07,21.28,1.47,16.73,
4:10:27,-0.56,0.47,-0.06,27.72,-3.22,1.12,
4:10:27,-0.5,0.51,-0.05,35,-2.1,-15.26,
4:10:27,-0.47,0.58,-0.03,37.24,5.18,-31.15,
4:10:27,-0.4,0.61,-0.01,33.81,23.59,-42.07,
4:10:27,-0.37,0.67,-0.02,33.46,36.47,-50.61,
4:10:27,-0.36,0.73,-0.03,33.81,40.88,-54.74,
4:10:27,-0.35,0.81,0,33.18,36.89,-57.12,
4:10:27,-0.33,0.92,0.07,31.22,28.42,-59.78,
4:10:27,-0.26,1.08,0.19,19.04,19.67,-63.77,
4:10:27,-0.11,1.22,0.26,2.45,7,-62.02,
4:10:27,0.08,1.32,0.22,-7.21,-10.08,-51.66,
4:10:27,0.29,1.37,0.16,-5.88,-22.19,-38.5,
4:10:27,0.5,1.43,0.12,-2.03,-14.35,-23.38,
4:10:27,0.66,1.49,0.12,8.47,12.18,-21.49,
4:10:27,0.68,1.5,0.11,18.69,47.88,-30.03,
4:10:27,0.41,1.4,0.12,14.42,77.28,-29.4,
4:10:27,0.37,1.26,0.12,8.61,87.22,-25.34,
4:10:27,0.26,1.19,0.09,7.07,81.41,-24.22,
4:10:27,0.15,1.12,0.09,3.15,73.92,-19.67,
4:10:27,-0.03,1.13,0,2.17,66.29,-17.71,
4:10:27,-0.29,1.17,-0.15,12.46,49.56,-17.57,
4:10:27,-0.49,1.17,-0.37,24.43,26.46,-17.15,
4:10:27,-0.58,1.08,-0.34,20.72,-0.84,-10.57,
4:10:27,-0.57,0.89,-0.47,17.01,-32.27,-3.01,
4:10:27,-0.53,0.77,-0.38,23.03,-61.95,1.68,
4:10:27,-0.44,0.67,-0.08,47.32,-65.73,2.31,
4:10:27,-0.43,0.87,0.39,72.59,-32.13,-1.33,
4:10:27,-0.73,1.43,0.77,29.54,-22.96,0.7,
4:10:27,-0.71,1.76,0.26,38.71,-74.97,16.52,
4:10:27,-0.76,1.97,0,44.24,-76.51,-10.64,
4:10:27,-0.7,1.78,-0.19,2.24,-59.5,-29.4,
4:10:27,-0.53,1.42,-0.21,-21,-30.03,-25.76,
4:10:27,-0.4,1.04,-0.18,-39.83,-6.51,-25.55,
4:10:27,-0.34,0.79,-0.15,-57.4,-0.84,-24.36,
4:10:27,-0.27,0.57,-0.09,-61.95,-0.7,-24.99,
4:10:27,-0.22,0.41,-0.04,-58.1,1.89,-20.93,
4:10:27,-0.21,0.32,-0.03,-51.45,0.49,-14.63,
4:10:27,-0.2,0.34,-0.02,-50.89,-0.98,-12.32,
4:10:27,-0.26,0.5,-0.03,-69.79,-5.18,-19.67,
4:10:27,-0.29,0.58,-0.05,-88.41,-5.11,-21.91,
4:10:27,-0.33,0.71,-0.09,-96.32,1.82,-21,
4:10:27,-0.38,0.9,-0.15,-99.05,11.34,-28.7,
4:10:27,-0.46,1.01,-0.27,-99.26,17.29,-37.87,
4:10:27,-0.58,1.03,-0.4,-88.9,15.54,-39.41,
4:10:27,-0.64,0.94,-0.47,-65.8,13.02,-33.25,
4:10:27,-0.61,0.79,-0.44,-25.83,19.6,-28.84,
4:10:27,-0.64,0.69,-0.51,11.06,15.19,-29.12,
4:10:27,-0.6,0.6,-0.51,35.63,-1.12,-28.91,
4:10:27,-0.42,0.73,-0.37,22.47,-5.53,-34.51,
4:10:27,-0.29,0.82,-0.26,-15.05,10.64,-33.88,
4:10:27,-0.18,0.82,-0.21,-36.33,42.21,-30.1,
4:10:27,-0.18,0.87,-0.3,-36.12,71.89,-31.78,
4:10:27,-0.3,0.91,-0.39,-24.99,56,-25.62,
4:10:27,-0.32,0.86,-0.6,12.53,7.98,-17.43,
4:10:27,-0.29,0.95,-0.62,84.14,-47.53,-11.13,
4:10:27,-0.18,1.03,-0.44,76.79,-73.5,-0.21,
4:10:27,-0.11,1.13,-0.23,40.67,-59.64,-2.31,
4:10:27,-0.09,1.06,-0.16,25.62,-24.57,-11.97,
4:10:27,-0.11,0.93,-0.24,47.25,9.87,-21.56,
4:10:27,-0.15,0.83,-0.34,87.01,25.97,-23.52,
4:10:27,-0.18,0.82,-0.39,111.93,24.01,-22.96,
4:10:27,-0.21,0.86,-0.37,119.07,12.46,-29.82,
4:10:27,-0.25,0.91,-0.29,113.96,0.56,-42.14,
4:10:27,-0.29,0.83,-0.26,117.88,-6.09,-45.78,
4:10:27,-0.31,0.83,-0.2,132.79,-6.02,-40.11,
4:10:27,-0.37,0.88,-0.18,143.22,-3.64,-36.47,
4:10:27,-0.44,0.92,-0.21,152.95,-6.65,-36.89,
4:10:27,-0.49,0.97,-0.21,154.28,-13.65,-36.54,
4:10:27,-0.51,0.99,-0.2,147.28,-20.44,-32.55,
4:10:27,-0.49,1,-0.16,140.07,-20.02,-28.49,
4:10:27,-0.49,1.02,-0.13,135.94,-14,-24.71,
4:10:27,-0.46,1.05,-0.08,134.12,-2.66,-28.77,
4:10:27,-0.44,1.05,0.03,129.78,19.95,-52.64,
4:10:27,-0.31,1.09,0.6,115.29,75.18,-42.7,
4:10:27,-0.01,1.15,0.78,52.36,185.43,-47.46,
4:10:27,-0.11,1.12,0.26,-14.07,206.01,-47.88,
4:10:27,-0.36,1.03,-0.17,-41.16,73.78,-41.72,
4:10:27,-0.27,0.89,-0.33,-25.76,-41.37,-31.08,
4:10:27,-0.17,0.91,-0.32,-10.64,-102.69,-24.36,
4:10:27,-0.05,0.91,-0.28,-23.94,-122.01,-17.57,
4:10:27,0.01,0.94,-0.25,-40.46,-109.41,-13.51,
4:10:27,0.04,0.99,-0.23,-60.06,-81.13,-12.95,
4:10:27,0.08,1.04,-0.23,-71.75,-29.89,-14.77,
4:10:27,0.03,1.1,-0.31,-67.9,22.96,-25.48,
4:10:27,-0.07,1.11,-0.39,-54.6,52.36,-32.97,
4:10:27,-0.09,1.05,-0.45,-35.63,63.14,-30.45,
4:10:27,-0.1,1,-0.46,-22.33,61.81,-27.37,
4:10:27,-0.09,1.02,-0.44,-23.87,56.07,-25.62,
4:10:27,-0.06,1.07,-0.39,-30.45,55.02,-24.15,
4:10:27,-0.01,1.13,-0.33,-37.1,60.83,-24.71,
4:10:27,0,1.14,-0.28,-35.28,68.25,-24.85,
4:10:27,0,1.13,-0.24,-1.82,73.36,-19.81,
4:10:27,-0.07,1.19,-0.22,0.77,57.33,-7.42,
4:10:27,-0.41,1.36,-0.17,-28.49,-80.08,45.71,
4:10:27,-0.4,1.68,0.97,-64.61,-196.21,83.93,
4:10:27,-0.02,1.88,1.17,-104.44,-78.05,43.12,
4:10:27,0.09,1.32,0.49,-143.64,10.57,51.66,
4:10:27,0.05,1.2,0.06,-172.48,54.95,53.2,
4:10:27,-0.09,1.14,-0.16,-185.71,53.69,66.43,
4:10:27,-0.13,1.12,-0.25,-181.72,51.17,74.27,
4:10:27,-0.25,1.05,-0.33,-160.37,68.74,80.78,
4:10:27,-0.22,1.08,-0.44,-132.09,77.42,82.46,
4:10:27,-0.38,1.17,-0.57,-109.13,64.96,76.3,
4:10:27,-0.58,1.27,-0.71,-73.64,25.34,63.28,
4:10:27,-0.72,1.25,-0.75,-67.41,-22.82,55.44,
4:10:27,-0.8,1.16,-0.73,-41.79,-66.78,58.38,
4:10:27,-0.83,1.04,-0.62,-10.43,-98.49,67.2,
4:10:27,-0.87,0.95,-0.44,16.24,-123.2,79.52,
4:10:27,-0.81,0.87,-0.18,38.92,-135.94,89.67,
4:10:27,-0.64,0.93,0.35,48.65,-120.4,96.18,
4:10:27,-0.42,1.11,0.45,7.49,-89.11,82.39,
4:10:27,-0.53,0.97,0.05,-9.1,-76.23,60.41,
4:10:27,-0.6,0.85,-0.16,-22.82,-69.79,58.31,
4:10:27,-0.49,0.84,-0.25,-34.58,-58.45,57.19,
4:10:27,-0.4,0.79,-0.31,-27.79,-47.88,50.4,
4:10:27,-0.31,0.82,-0.32,-13.09,-29.4,48.93,
4:10:27,-0.16,0.85,-0.27,-4.48,14.84,39.34,
4:10:27,-0.1,0.85,-0.31,-4.62,60.97,44.03,
4:10:27,-0.07,0.84,-0.26,-5.04,65.24,67.06,
4:10:27,0.15,1.01,0.12,-21.07,49.49,94.57,
4:10:27,-0.05,1.11,0.06,-6.23,31.92,78.05,
4:10:27,-0.31,0.95,0.08,-17.15,50.82,62.51,
4:10:27,-0.52,0.76,-0.07,-33.81,88.83,54.6,
4:10:27,-0.62,0.63,-0.21,-35.07,107.52,50.68,
4:10:27,-0.65,0.58,-0.21,-32.48,102.13,46.41,
4:10:27,-0.63,0.43,-0.18,-22.33,85.47,40.32,
4:10:27,-0.63,0.33,-0.18,-3.57,70.07,39.2,
4:10:27,-0.65,0.3,-0.21,16.03,49.14,38.78,
4:10:27,-0.7,0.34,-0.23,34.79,25.34,29.96,
4:10:27,-0.68,0.36,-0.2,38.22,5.53,16.1,
4:10:27,-0.67,0.35,-0.2,46.97,-8.96,2.52,
4:10:27,-0.62,0.39,-0.14,49.28,-14.63,-10.85,
4:10:27,-0.55,0.4,-0.1,53.2,-9.66,-23.8,
4:10:27,-0.53,0.46,-0.05,50.54,-0.28,-52.36,
4:10:27,-0.5,0.55,0.04,47.25,17.01,-53.06,
4:10:27,-0.46,0.7,0.16,43.26,43.4,-66.22,
4:10:27,-0.44,0.86,0.32,27.79,69.44,-75.18,
4:10:27,-0.36,1.11,0.55,-1.75,84.77,-74.97,
4:10:27,-0.18,1.4,0.66,-28.63,76.09,-62.65,
4:10:27,0.1,1.65,0.47,-25.9,27.44,-28.91,
4:10:27,0.63,1.8,0.14,-2.59,-22.33,3.92,
4:10:27,1.21,1.71,-0.13,16.1,-2.24,23.17,
4:10:27,1.42,1.73,-0.32,27.93,73.29,0.91,
4:10:27,1.26,1.66,-0.36,24.85,93.03,-25.83,
4:10:27,0.8,1.3,0.02,6.37,87.29,-11.13,
4:10:27,0.33,1.17,0.1,-11.55,101.22,-13.37,
4:10:27,0.13,1.01,0.03,-30.59,97.93,-7,
4:10:27,-0.02,1.04,-0.1,-28.49,81.55,-1.68,
4:10:27,-0.25,1.01,-0.26,-13.16,54.6,3.99,
4:10:27,-0.58,1.02,-0.45,12.53,14.35,8.33,
4:10:27,-0.59,1.01,-0.5,38.57,-20.09,12.18,
4:10:27,-0.59,0.91,-0.32,58.87,-35.63,20.02,
4:10:27,-0.6,0.95,0,95.27,-23.31,20.09,
4:10:27,-0.71,1.23,0.54,91,27.51,-6.86,
4:10:27,-0.98,1.85,1.25,19.32,94.71,-52.92,
4:10:27,-1.3,1.89,0.34,-76.79,49.07,-41.3,
4:10:27,-1,1.27,-0.56,-75.04,-78.33,-4.06,
4:10:27,-0.5,1.17,-0.43,-59.78,-92.47,-20.51,
4:10:27,-0.33,0.99,-0.28,-76.72,-50.82,-25.41,
4:10:27,-0.26,0.67,-0.23,-64.75,-25.34,-14,
4:10:27,-0.25,0.59,-0.17,-46.13,-15.96,-8.47,
4:10:27,-0.28,0.58,-0.14,-39.06,-17.36,-11.2,
4:10:27,-0.33,0.59,-0.12,-36.19,-23.24,-17.99,
4:10:27,-0.37,0.62,-0.12,-41.58,-31.85,-20.44,
4:10:27,-0.36,0.69,-0.09,-55.37,-31.57,-16.38,
4:10:27,-0.37,0.74,-0.1,-62.93,-26.39,-13.65,
4:10:27,-0.38,0.76,-0.12,-66.99,-23.38,-7.35,
4:10:27,-0.41,0.82,-0.15,-78.82,-21.91,-3.08,
4:10:27,-0.48,0.85,-0.31,-83.86,-29.96,-6.65,
4:10:27,-0.47,0.86,-0.37,-69.02,-39.69,-6.09,
4:10:27,-0.47,0.93,-0.38,-50.54,-34.65,-11.06,
4:10:27,-0.51,0.94,-0.34,-24.99,-24.08,-19.6,
4:10:27,-0.45,0.88,-0.3,-19.46,-1.68,-21.14,
4:10:27,-0.41,0.85,-0.34,-18.27,25.83,-27.37,
4:10:27,-0.3,0.78,-0.29,-14.7,55.16,-36.89,
4:10:27,-0.3,0.78,-0.26,-3.22,84.14,-49.63,
4:10:27,-0.22,0.86,-0.16,-34.72,117.88,-52.5,
4:10:27,-0.17,0.94,-0.13,-59.08,151.83,-51.45,
4:10:27,-0.15,1,-0.16,-83.79,173.95,-62.02,
4:10:27,-0.1,0.9,-0.22,-72.38,184.94,-67.76,
4:10:27,-0.13,0.88,-0.3,-39.62,177.24,-65.45,
4:10:27,-0.18,0.92,-0.37,-4.83,149.73,-61.39,
4:10:27,-0.24,0.83,-0.54,39.27,93.1,-42.63,
4:10:27,-0.24,0.82,-0.57,96.53,24.57,-20.44,
4:10:27,-0.2,0.97,-0.43,122.15,-25.27,-8.82,
4:10:27,-0.16,0.98,-0.36,118.37,-49.84,-2.38,
4:10:27,-0.15,0.93,-0.33,120.19,-60.13,2.52,
4:10:27,-0.19,0.95,-0.31,123.9,-63.07,-3.22,
4:10:27,-0.21,0.92,-0.26,124.04,-62.09,-15.68,
4:10:27,-0.23,0.84,-0.25,126.07,-62.37,-22.47,
4:10:27,-0.24,0.83,-0.23,124.88,-62.09,-25.06,
4:10:27,-0.24,0.86,-0.16,113.12,-54.04,-25.76,
4:10:27,-0.26,0.88,-0.12,102.27,-38.5,-26.46,
4:10:27,-0.32,0.9,-0.15,106.47,-25.06,-31.22,
4:10:27,-0.38,0.97,-0.15,115.43,-16.31,-38.36,
4:10:27,-0.43,1.01,-0.16,120.12,-8.75,-45.08,
4:10:27,-0.43,0.93,-0.15,129.43,-2.66,-38.71,
4:10:27,-0.43,0.97,-0.12,136.99,5.39,-35.42,
4:10:27,-0.45,1.02,-0.11,134.82,16.52,-38.22,
4:10:27,-0.45,1.01,-0.09,125.51,23.24,-40.6,
4:10:27,-0.44,1,-0.03,114.24,34.51,-39.69,
4:10:27,-0.38,1.01,0.19,86.94,64.75,-42.63,
4:10:27,-0.12,1.08,0.64,41.37,143.92,-52.29,
4:10:27,-0.1,1.04,0.37,5.39,169.89,-54.95,
4:10:27,-0.21,1.03,-0.06,-18.34,90.37,-43.89,
4:10:27,-0.13,1.04,-0.2,-29.12,-20.79,-28.56,
4:10:27,-0.01,1.04,-0.22,-40.18,-76.86,-28.98,
4:10:27,0.08,0.98,-0.23,-59.71,-87.78,-25.83,
4:10:27,0.14,0.99,-0.19,-73.29,-65.8,-15.4,
4:10:27,0.15,1.07,-0.2,-76.65,-18.9,-14.84,
4:10:27,0.1,1.12,-0.26,-68.32,30.1,-19.53,
4:10:27,0.08,1.13,-0.3,-51.73,57.75,-27.16,
4:10:27,0.06,1.1,-0.33,-44.24,71.61,-23.45,
4:10:27,0.05,1.09,-0.36,-37.31,72.94,-16.66,
4:10:27,0.03,1.12,-0.35,-31.57,62.93,-11.48,
4:10:27,0.01,1.11,-0.3,-23.8,42.91,-0.77,
4:10:27,-0.15,1.2,-0.2,-35.56,-27.23,28.7,
4:10:27,-0.28,1.28,0.17,-41.02,-136.22,73.85,
4:10:27,-0.08,1.66,1.25,-65.45,-129.36,78.89,
4:10:27,0.13,1.45,0.97,-113.54,-42,68.18,
4:10:27,0.14,1.18,0.33,-135.8,14.14,68.53,
4:10:27,0.03,1.13,-0.09,-161.07,50.89,83.16,
4:10:27,-0.03,1.14,-0.36,-160.86,76.37,101.64,
4:10:27,-0.27,1.23,-0.56,-131.25,68.74,108.71,
4:10:27,-0.51,1.4,-0.67,-97.37,38.08,104.37,
4:10:27,-0.77,1.46,-0.75,-77.98,-14.07,90.58,
4:10:27,-0.97,1.45,-0.77,-60.2,-75.32,73.57,
4:10:27,-1.09,1.33,-0.78,-27.58,-132.37,66.29,
4:10:27,-1.15,1.19,-0.53,11.06,-169.33,80.15,
4:10:27,-1.18,1.09,-0.16,41.65,-179.34,104.16,
4:10:27,-1.06,1.14,0.67,21.63,-130.55,111.3,
4:10:27,-0.78,1.11,0.4,-14.07,-105,94.29,
4:10:27,-0.64,0.94,0.08,-5.74,-112.56,75.88,
4:10:27,-0.56,0.84,-0.07,2.17,-106.33,68.39,
4:10:27,-0.48,0.84,-0.16,6.09,-99.19,62.37,
4:10:27,-0.31,0.89,-0.18,-9.1,-70.35,50.54,
4:10:27,-0.22,0.84,-0.23,-15.26,-39.13,42.35,
4:10:27,-0.12,0.85,-0.21,-7.42,-6.93,43.75,
4:10:27,-0.06,0.92,-0.22,-9.38,30.03,38.57,
4:10:27,-0.03,0.9,-0.21,-18.41,9.73,49.49,
4:10:27,0.19,0.96,0.23,-28.77,-0.35,68.11,
4:10:27,0.15,0.94,0.03,-15.68,1.89,67.13,
4:10:27,0.08,0.95,0.09,-6.79,15.4,60.06,
4:10:27,-0.01,0.91,0.02,-19.39,70.7,53.06,
4:10:27,-0.19,0.78,-0.14,-26.11,127.05,42.35,
4:10:27,-0.39,0.68,-0.27,-31.85,143.92,40.18,
4:10:27,-0.57,0.57,-0.31,-27.65,122.08,35.63,
4:10:27,-0.71,0.48,-0.31,-17.15,78.75,33.04,
4:10:27,-0.75,0.39,-0.26,-6.02,48.93,33.32,
4:10:27,-0.73,0.32,-0.2,0.77,27.51,33.11,
4:10:27,-0.67,0.28,-0.18,15.75,11.83,32.34,
4:10:27,-0.62,0.32,-0.18,29.82,-2.38,25.9,
4:10:27,-0.61,0.44,-0.14,37.38,-14.49,19.39,
4:10:27,-0.57,0.51,-0.1,39.9,-19.74,6.02,
4:10:27,-0.51,0.54,-0.08,48.09,-18.34,-9.52,
4:10:27,-0.42,0.59,-0.05,50.12,-4.55,-19.46,
4:10:27,-0.33,0.7,-0.03,46.62,17.5,-31.85,
4:10:27,-0.28,0.76,-0.04,48.51,34.79,-37.94,
4:10:27,-0.24,0.85,0,56.63,42.91,-43.89,
4:10:27,-0.18,1,0.14,49.49,47.25,-48.02,
4:10:27,-0.12,1.15,0.27,43.75,43.96,-48.72,
4:10:27,0.01,1.38,0.36,32.83,35.28,-52.36,
4:10:27,0.19,1.47,0.32,18.55,19.67,-51.17,
4:10:27,0.41,1.45,0.22,5.18,10.57,-41.65,
4:10:27,0.6,1.44,0.12,-6.65,24.78,-37.73,
4:10:27,0.75,1.35,-0.09,-10.57,65.38,-43.12,
4:10:27,0.68,1.24,-0.32,-8.96,93.66,-38.08,
4:10:27,0.57,1.22,-0.36,-4.69,99.54,-29.89,
4:10:27,0.47,1.2,-0.26,-0.98,97.93,-19.18,
4:10:27,0.32,1.14,-0.13,4.2,91.14,-9.73,
4:10:27,0.13,1.15,0.03,4.06,57.89,2.17,
4:10:27,-0.01,1.15,0.21,-1.68,61.67,6.72,
4:10:27,-0.11,1.09,0.25,-11.83,53.69,15.19,
4:10:27,-0.26,1.02,0.11,-8.75,34.02,15.47,
4:10:27,-0.45,1.03,-0.07,11.9,9.03,10.36,
4:10:27,-0.58,0.99,-0.26,39.13,-16.45,4.13,
4:10:27,-0.61,0.93,-0.33,60.76,-39.13,0.49,
4:10:27,-0.54,0.84,-0.11,63.63,-40.67,0.56,
4:10:27,-0.48,0.74,0.14,45.29,-16.94,-0.56,
4:10:27,-0.51,0.82,0.38,11.83,27.58,-23.66,
4:10:27,-0.66,1.18,0.33,-13.37,80.29,-82.88,
4:10:27,-0.81,1.38,0,-1.75,76.58,-93.73,
4:10:27,-0.85,1.59,-0.39,17.08,9.73,-50.96,
4:10:27,-0.74,1.9,-0.54,5.6,-32.48,-23.73,
4:10:27,-0.55,2.04,-0.52,-47.11,-43.4,-13.86,
4:10:27,-0.31,1.59,-0.37,-55.23,-39.41,-20.3,
4:10:27,-0.14,1.03,-0.21,-26.81,-27.58,-23.1,
4:10:27,-0.05,0.62,-0.11,-12.53,-20.72,-10.92,
4:10:27,-0.05,0.37,-0.05,-10.78,-18.9,1.54,
4:10:27,-0.09,0.27,-0.01,-13.23,-17.01,10.57,
4:10:27,-0.12,0.21,0.02,-16.59,-11.83,11.55,
4:10:27,-0.18,0.22,0,-17.22,-5.18,5.46,
4:10:27,-0.31,0.46,-0.02,-37.8,-7.14,-11.06,
4:10:27,-0.39,0.73,-0.06,-69.23,-7.98,-23.52,
4:10:27,-0.47,0.87,-0.12,-92.19,-6.09,-28.42,
4:10:27,-0.56,0.99,-0.21,-100.87,-11.34,-30.03,
4:10:27,-0.67,1.01,-0.35,-93.31,-20.51,-24.5,
4:10:27,-0.81,0.98,-0.51,-60.06,-47.39,-14.14,
4:10:27,-0.81,0.93,-0.51,2.73,-76.86,-3.99,
4:10:27,-0.75,0.93,-0.42,27.51,-91.14,-10.36,
4:10:27,-0.58,0.74,-0.33,39.55,-88.97,-13.3,
4:10:27,-0.41,0.69,-0.23,29.54,-65.73,-6.44,
4:10:27,-0.3,0.74,-0.17,0.21,-36.05,-3.29,
4:10:27,-0.24,0.82,-0.18,-29.68,-3.08,-7.84,
4:10:27,-0.19,0.91,-0.19,-56.21,28.56,-22.82,
4:10:27,-0.18,0.97,-0.18,-76.02,57.61,-34.65,
4:10:27,-0.2,1,-0.19,-76.16,74.9,-50.82,
4:10:27,-0.23,0.99,-0.24,-63.14,79.45,-65.38,
4:10:27,-0.26,0.89,-0.29,-47.53,70.35,-59.22,
4:10:27,-0.26,0.84,-0.29,-20.65,53.48,-43.47,
4:10:27,-0.22,0.87,-0.34,4.83,36.33,-32.41,
4:10:27,-0.15,0.84,-0.46,46.97,8.82,-20.23,
4:10:27,-0.1,0.92,-0.47,60.83,-17.29,-6.93,
4:10:27,-0.05,0.89,-0.45,71.33,-34.58,2.45,
4:10:27,-0.05,0.92,-0.39,82.53,-42.7,-2.24,
4:10:27,-0.04,0.94,-0.35,85.96,-39.06,-12.6,
4:10:27,-0.04,0.94,-0.34,89.88,-25.69,-18.97,
4:10:27,-0.09,1,-0.33,97.23,-7.84,-32.27,
4:10:27,-0.2,0.95,-0.32,113.89,3.08,-45.99,
4:10:27,-0.24,0.91,-0.25,132.02,12.95,-47.46,
4:10:27,-0.28,0.92,-0.2,135.31,24.57,-44.31,
4:10:27,-0.31,0.96,-0.16,128.31,32.06,-44.45,
4:10:27,-0.35,0.98,-0.14,123.2,37.87,-44.87,
4:10:27,-0.39,1.02,-0.15,120.68,38.43,-41.93,
4:10:27,-0.42,1.03,-0.15,121.73,32.83,-36.33,
4:10:27,-0.43,1.03,-0.13,123.83,27.09,-32.13,
4:10:27,-0.42,1.01,-0.1,127.75,20.3,-31.71,
4:10:27,-0.39,0.96,-0.04,132.65,14.63,-29.89,
4:10:27,-0.27,0.85,0.44,156.8,43.75,-27.65,
4:10:27,-0.14,1.13,0.98,89.95,135.59,-33.46,
4:10:27,-0.37,1.21,0.26,-16.17,104.02,-44.31,
4:10:27,-0.4,1.02,-0.09,-31.43,-12.04,-33.95,
4:10:27,-0.25,0.97,-0.21,-38.92,-60.62,-31.5,
4:10:27,-0.15,0.94,-0.26,-56.84,-75.88,-27.16,
4:10:27,-0.06,0.94,-0.26,-70.28,-66.43,-24.22,
4:10:27,0,0.94,-0.28,-68.81,-40.53,-23.94,
4:10:27,0,1,-0.33,-57.96,-17.01,-25.2,
4:10:27,0,1.02,-0.38,-48.65,-3.36,-23.87,
4:10:27,0.04,1.03,-0.4,-35.63,8.05,-21,
4:10:27,0.08,1.06,-0.39,-28.21,19.6,-19.25,
4:10:27,0.1,1.1,-0.38,-24.78,30.59,-19.04,
4:10:27,0.1,1.24,-0.36,-21.42,38.64,-18.55,
4:10:27,0.11,1.16,-0.32,-15.68,45.92,-17.99,
4:10:27,0.09,1.16,-0.26,-7.63,50.19,-14.91,
4:10:27,-0.1,1.17,-0.21,11.13,39.9,-4.97,
4:10:27,-0.31,1.26,-0.13,34.16,-44.38,25.83,
4:10:27,-0.43,1.54,0.41,25.41,-146.3,63.14,
4:10:27,-0.17,1.88,1.25,-71.19,-86.94,45.57,
4:10:27,0.06,1.37,0.58,-122.71,-12.18,45.85,
4:10:27,0.08,1.17,0.16,-150.08,33.53,48.09,
4:10:27,-0.07,1.1,-0.14,-157.85,37.1,62.16,
4:10:27,-0.13,1.07,-0.19,-146.86,28.63,74.62,
4:10:27,-0.17,1.06,-0.26,-133.84,27.23,77.84,
4:10:27,-0.23,1.03,-0.37,-117.04,27.02,87.29,
4:10:27,-0.37,1.14,-0.47,-100.66,15.05,91.49,
4:10:27,-0.52,1.24,-0.52,-85.68,-11.83,88.62,
4:10:27,-0.65,1.28,-0.5,-63.63,-51.17,82.95,
4:10:27,-0.74,1.25,-0.39,-41.44,-75.6,80.08,
4:10:27,-0.79,1.19,-0.18,-18.83,-80.01,79.38,
4:10:27,-0.8,1.1,0,6.23,-69.86,83.93,
4:10:27,-0.79,1.08,0.09,3.01,-70,87.5,
4:10:27,-0.72,1.07,0.08,-12.46,-74.34,78.33,
4:10:27,-0.66,0.95,-0.06,-17.36,-77.56,66.64,
4:10:27,-0.65,0.91,-0.19,-22.61,-78.96,59.08,
4:10:27,-0.62,0.84,-0.23,-20.72,-82.11,50.61,
4:10:27,-0.45,0.78,-0.22,-16.94,-65.59,45.78,
4:10:27,-0.41,0.71,-0.27,-16.03,-63.63,46.69,
4:10:27,-0.31,0.68,-0.25,-2.38,-67.27,50.26,
4:10:27,-0.18,0.76,-0.16,19.67,-65.87,63.07,
4:10:27,-0.12,0.9,-0.11,27.37,-71.19,91.98,
4:10:27,0,1.08,0.02,17.22,-70.28,106.54,
4:10:27,-0.03,1.09,0.03,5.18,-48.58,94.85,
4:10:27,-0.06,1,0.02,5.04,-22.54,73.08,
4:10:27,-0.11,0.92,0.04,-11.69,25.55,53.06,
4:10:27,-0.26,0.82,-0.06,-18.27,76.09,33.46,
4:10:27,-0.37,0.7,-0.13,-5.88,106.12,28.91,
4:10:27,-0.4,0.68,-0.15,-6.44,110.88,41.65,
4:10:27,-0.45,0.61,-0.12,2.24,82.74,44.38,
4:10:27,-0.5,0.53,-0.08,10.78,61.11,39.97,
4:10:27,-0.58,0.51,-0.11,17.08,51.94,31.29,
4:10:27,-0.61,0.5,-0.16,16.59,42,21.49,
4:10:27,-0.63,0.45,-0.21,21,17.01,16.73,
4:10:27,-0.58,0.47,-0.16,26.67,3.36,4.97,
4:10:27,-0.5,0.47,-0.09,30.8,2.59,-5.67,
4:10:27,-0.44,0.49,-0.07,36.68,5.11,-14.63,
4:10:27,-0.41,0.54,-0.06,38.78,7.14,-24.08,
4:10:27,-0.36,0.6,-0.08,39.62,12.74,-33.95,
4:10:27,-0.29,0.68,-0.07,41.44,26.88,-43.61,
4:10:27,-0.28,0.78,-0.05,42.77,37.52,-49.77,
4:10:27,-0.26,0.89,0.03,45.43,41.44,-55.3,
4:10:27,-0.19,1.1,0.18,39.27,38.64,-50.12,
4:10:27,-0.05,1.3,0.3,29.4,30.94,-45.71,
4:10:27,0.15,1.48,0.35,22.54,21.77,-38.71,
4:10:27,0.45,1.56,0.27,13.37,12.11,-31.5,
4:10:27,0.71,1.49,0.11,9.59,15.82,-23.87,
4:10:27,0.86,1.42,-0.05,13.79,34.02,-19.25,
4:10:27,0.84,1.44,-0.13,11.2,56.35,-22.4,
4:10:27,0.68,1.35,-0.08,-4.06,77.21,-18.2,
4:10:27,0.44,1.21,-0.01,-13.37,87.15,-10.57,
4:10:27,0.22,1.14,0.02,-14.98,85.54,-7.42,
4:10:27,0.1,1.1,0.05,-19.88,79.66,-0.14,
4:10:27,0,1.06,0.02,-19.39,69.72,2.38,
4:10:27,-0.11,1.04,-0.13,-12.32,52.78,3.29,
4:10:27,-0.24,0.94,-0.39,0.14,28.35,1.96,
4:10:27,-0.41,0.87,-0.56,26.88,-17.64,-1.26,
4:10:27,-0.53,0.82,-0.49,54.95,-33.18,3.57,
4:10:27,-0.56,0.8,-0.18,86.31,-32.13,8.4,
4:10:27,-0.53,0.79,0.19,76.44,-5.6,2.66,
4:10:27,-0.56,0.97,0.73,7.42,74.97,-35.7,
4:10:27,-0.88,1.45,0.86,-46.97,163.03,-107.38,
4:10:27,-1.31,1.61,0.19,-66.71,99.75,-104.16,
4:10:27,-1.11,1.62,-0.59,-48.86,-47.32,-23.94,
4:10:27,-0.77,1.98,-0.55,-44.73,-73.15,-5.53,
4:10:27,-0.53,1.93,-0.42,-60.97,-51.66,-22.96,
4:10:27,-0.29,1.17,-0.27,-41.02,-38.01,-25.48,
4:10:27,-0.14,0.69,-0.14,-16.03,-32.27,-10.43,
4:10:27,-0.09,0.44,-0.06,-6.16,-32.97,6.72,
4:10:27,-0.08,0.32,0,-11.34,-34.65,17.29,
4:10:27,-0.12,0.27,0.03,-21.56,-33.53,21.21,
4:10:27,-0.21,0.31,0.01,-35.14,-36.05,14,
4:10:27,-0.35,0.51,-0.06,-57.82,-50.26,-4.48,
4:10:27,-0.44,0.69,-0.1,-70.07,-63.98,-24.15,
4:10:27,-0.5,0.81,-0.13,-74.55,-71.75,-30.66,
4:10:27,-0.58,0.9,-0.21,-66.22,-76.86,-25.27,
4:10:27,-0.65,0.96,-0.27,-46.13,-84.42,-12.25,
4:10:27,-0.69,1.03,-0.3,-25.62,-91.42,-0.77,
4:10:27,-0.71,1.04,-0.35,-7.35,-94.22,-1.82,
4:10:27,-0.64,0.96,-0.34,10.71,-85.47,-13.02,
4:10:27,-0.57,0.74,-0.33,19.11,-72.1,-14.28,
4:10:27,-0.47,0.61,-0.28,30.66,-56.35,-6.72,
4:10:27,-0.35,0.7,-0.22,19.11,-35.98,-7.28,
4:10:27,-0.33,0.76,-0.24,-10.01,-21.14,-14.35,
4:10:27,-0.33,0.78,-0.3,-27.51,-16.1,-18.83,
4:10:27,-0.34,0.89,-0.33,-37.17,-17.57,-26.53,
4:10:27,-0.35,0.96,-0.32,-48.44,-19.04,-34.65,
4:10:27,-0.32,0.95,-0.3,-44.94,-14.07,-40.18,
4:10:27,-0.34,0.91,-0.33,-18.97,-13.02,-45.36,
4:10:27,-0.42,0.89,-0.37,17.36,-29.61,-51.38,
4:10:27,-0.28,0.93,-0.2,26.18,-27.79,-39.83,
4:10:27,-0.18,0.91,-0.14,21.91,-3.29,-37.17,
4:10:27,-0.17,0.88,-0.17,28.42,22.75,-33.6,
4:10:27,-0.18,0.82,-0.29,43.75,17.92,-29.75,
4:10:27,-0.17,0.8,-0.45,74.06,18.9,-19.11,
4:10:27,-0.1,0.9,-0.4,84.42,7.42,-15.68,
4:10:27,-0.06,0.98,-0.34,70,5.81,-22.19,
4:10:27,-0.04,1.01,-0.31,52.64,10.43,-36.82,
4:10:27,-0.06,0.99,-0.29,63.14,19.95,-51.94,
4:10:27,-0.07,0.97,-0.24,86.17,33.88,-58.31,
4:10:27,-0.11,0.97,-0.2,111.09,49.56,-58.03,
4:10:27,-0.15,0.97,-0.18,128.1,59.99,-57.75,
4:10:27,-0.19,1.01,-0.15,133.14,64.75,-60.48,
4:10:27,-0.22,1.03,-0.14,129.15,63.98,-60.34,
4:10:27,-0.25,1.05,-0.14,120.82,58.45,-54.53,
4:10:27,-0.28,1.06,-0.15,114.24,49.07,-47.18,
4:10:27,-0.31,1.05,-0.15,111.16,31.92,-40.74,
4:10:27,-0.31,1.05,-0.15,112.84,14.21,-35.35,
4:10:27,-0.29,1.02,-0.13,118.79,-6.65,-32.62,
4:10:27,-0.28,0.98,-0.1,130.27,-33.39,-30.94,
4:10:27,-0.25,0.92,0.03,149.24,-63.77,-28.7,
4:10:27,-0.12,0.88,0.56,193.06,-65.87,-27.79,
4:10:27,0.04,1.58,0.75,24.64,-59.99,-24.5,
4:10:27,0.07,1.36,0.16,-71.4,-36.75,-21.56,
4:10:27,0.06,1.11,-0.06,-98.14,2.24,-21.56,
4:10:27,0.05,0.98,-0.21,-99.54,32.9,-17.43,
4:10:27,0.04,1,-0.3,-81.76,47.81,-16.59,
4:10:27,0.02,1.08,-0.34,-62.23,53.2,-20.37,
4:10:27,0.01,1.07,-0.39,-46.2,42.7,-19.74,
4:10:27,0.03,1.07,-0.41,-36.05,24.99,-14.42,
4:10:27,0.07,1.06,-0.41,-33.25,5.74,-4.41,
4:10:27,0.12,1.1,-0.35,-31.43,-4.69,3.92,
4:10:27,0.12,1.13,-0.27,-25.69,-9.45,6.02,
4:10:27,0.09,1.22,-0.2,-16.52,-10.64,7.7,
4:10:27,-0.03,1.33,-0.11,-15.05,-30.8,17.78,
4:10:27,-0.17,1.41,0.11,-24.57,-82.6,40.6,
4:10:27,-0.21,1.52,0.63,-33.11,-102.13,58.03,
4:10:27,-0.16,1.68,1.02,-86.38,-47.39,57.26,
4:10:27,-0.08,1.3,0.46,-139.51,5.67,62.23,
4:10:27,-0.06,1.12,0.06,-161.21,47.18,61.04,
4:10:27,-0.09,1.06,-0.2,-170.59,73.15,73.22,
4:10:27,-0.14,1.05,-0.34,-165.48,84.28,88.76,
4:10:27,-0.28,1.15,-0.47,-140.28,78.12,92.05,
4:10:27,-0.49,1.26,-0.62,-99.96,45.85,81.76,
4:10:27,-0.71,1.34,-0.71,-73.29,-10.22,62.44,
4:10:27,-0.81,1.31,-0.69,-52.5,-66.08,49.56,
4:10:27,-0.9,1.21,-0.5,-30.31,-114.03,49.98,
4:10:27,-0.9,1.04,-0.44,-8.75,-139.37,66.57,
4:10:27,-0.9,0.9,-0.24,9.87,-146.23,85.96,
4:10:27,-0.8,0.81,0.13,29.33,-115.85,91.35,
4:10:27,-0.66,0.91,0.33,22.19,-86.31,81.55,
4:10:27,-0.53,0.92,0.18,-3.57,-83.37,63.21,
4:10:27,-0.51,0.83,-0.02,-18.9,-72.24,51.38,
4:10:27,-0.55,0.85,-0.19,-34.02,-68.53,44.24,
4:10:27,-0.46,0.84,-0.24,-41.16,-61.46,38.85,
4:10:27,-0.34,0.83,-0.23,-37.66,-40.11,42.42,
4:10:27,-0.23,0.86,-0.24,-28.28,-12.6,48.93,
4:10:27,-0.22,0.91,-0.28,-17.78,7.28,53.13,
4:10:27,-0.19,0.92,-0.35,-5.39,-3.08,70.42,
4:10:27,-0.1,0.94,-0.27,9.24,-38.64,86.66,
4:10:27,0.08,0.93,-0.04,40.39,-57.54,82.53,
4:10:27,0.23,0.93,0.13,61.6,-35.98,72.31,
4:10:27,0.12,0.87,0.17,42.35,0.7,64.68,
4:10:27,-0.08,0.84,0.14,20.09,51.38,47.81,
4:10:27,-0.33,0.76,-0.04,-3.71,109.48,38.99,
4:10:27,-0.59,0.65,-0.18,-17.01,112.84,39.83,
4:10:27,-0.62,0.56,-0.21,-11.97,88.27,35.07,
4:10:27,-0.62,0.47,-0.21,0.91,66.99,30.45,
4:10:27,-0.57,0.39,-0.22,17.22,51.17,33.32,
4:10:27,-0.53,0.43,-0.22,25.69,38.15,30.45,
4:10:27,-0.48,0.54,-0.21,30.31,28.35,19.39,
4:10:27,-0.44,0.59,-0.16,31.01,19.88,8.75,
4:10:27,-0.4,0.61,-0.12,31.99,18.76,-2.03,
4:10:27,-0.36,0.62,-0.1,34.79,22.12,-14,
4:10:27,-0.33,0.63,-0.07,41.23,29.4,-27.3,
4:10:27,-0.27,0.64,-0.06,47.39,41.86,-30.1,
4:10:27,-0.28,0.75,-0.03,51.45,69.93,-39.83,
4:10:27,-0.3,0.83,0.04,54.32,60.2,-47.74,
4:10:27,-0.29,0.94,0.12,52.92,61.32,-54.39,
4:10:27,-0.25,1.09,0.22,42.63,53.48,-57.26,
4:10:27,-0.16,1.27,0.31,10.78,42.42,-59.71,
4:10:27,0.05,1.32,0.29,-7.14,37.87,-58.17,
4:10:27,0.32,1.3,0.02,-12.6,47.18,-53.48,
4:10:27,0.52,1.24,-0.13,-5.81,65.1,-49.14,
4:10:27,0.57,1.28,-0.25,-0.63,74.06,-42.91,
4:10:27,0.56,1.34,-0.24,1.05,68.04,-31.29,
4:10:27,0.56,1.28,-0.12,2.38,58.52,-13.3,
4:10:27,0.46,1.17,-0.03,13.16,55.3,-3.99,
4:10:27,0.32,1.13,0.06,14.63,54.53,5.11,
4:10:27,0.17,1.16,0.07,11.27,51.38,9.8,
4:10:27,0.03,1.15,0.03,6.93,43.05,8.68,
4:10:27,-0.07,1.07,-0.11,15.12,37.03,7.77,
4:10:27,-0.26,1.03,-0.33,27.72,22.47,4.13,
4:10:27,-0.44,0.99,-0.43,39.9,0.42,0.42,
4:10:27,-0.54,0.95,-0.33,56.7,-17.15,-6.16,
4:10:27,-0.53,0.88,0.03,53.76,-10.08,-10.08,
4:10:27,-0.55,0.98,0.52,30.03,30.59,-25.2,
4:10:27,-0.81,1.57,0.89,-21.84,89.11,-60.55,
4:10:27,-1.07,1.87,0.12,-79.8,34.16,-6.72,
4:10:27,-0.84,1.89,-0.56,-97.16,-44.59,22.47,
4:10:27,-0.66,2,-0.52,-111.79,-51.38,-7.63,
4:10:27,-0.34,1.39,-0.33,-97.79,-7.98,-21.98,
4:10:27,-0.13,0.81,-0.2,-66.08,7.49,-10.71,
4:10:27,-0.1,0.47,-0.1,-46.9,9.31,1.26,
4:10:27,-0.13,0.27,-0.05,-47.74,1.26,11.34,
4:10:27,-0.19,0.2,-0.03,-57.12,-11.69,14.14,
4:10:27,-0.28,0.2,-0.06,-60.9,-31.01,10.99,
4:10:27,-0.43,0.44,-0.1,-66.92,-55.58,3.15,
4:10:27,-0.51,0.72,-0.13,-75.11,-77.91,-4.55,
4:10:27,-0.57,0.92,-0.14,-78.47,-91.49,-3.99,
4:10:27,-0.6,1.09,-0.15,-76.72,-95.27,-0.28,
4:10:27,-0.59,1.17,-0.14,-67.55,-83.3,1.61,
4:10:27,-0.56,1.13,-0.13,-54.25,-57.33,-6.23,
4:10:27,-0.48,0.95,-0.2,-37.66,-15.96,-10.92,
4:10:27,-0.57,0.78,-0.33,-12.39,-10.5,-14.35,
4:10:27,-0.45,0.67,-0.26,2.52,-10.36,-10.43,
4:10:27,-0.41,0.64,-0.22,-3.29,-1.82,-15.61,
4:10:27,-0.35,0.66,-0.19,-16.03,14.35,-29.05,
4:10:27,-0.28,0.69,-0.16,-30.94,47.25,-40.39,
4:10:27,-0.26,0.81,-0.19,-48.3,78.89,-42.98,
4:10:27,-0.24,0.91,-0.2,-69.51,103.25,-38.92,
4:10:27,-0.25,0.93,-0.23,-80.92,114.45,-33.6,
4:10:27,-0.23,0.96,-0.23,-67.13,120.19,-34.51,
4:10:27,-0.25,0.96,-0.31,-32.13,117.25,-46.62,
4:10:27,-0.28,0.9,-0.5,22.68,92.05,-47.88,
4:10:27,-0.32,0.94,-0.56,74.27,28.49,-42.49,
4:10:27,-0.21,0.98,-0.42,86.03,-1.82,-33.74,
4:10:27,-0.15,0.98,-0.32,72.87,-15.05,-33.46,
4:10:27,-0.13,0.95,-0.29,64.54,-21.7,-36.82,
4:10:27,-0.12,0.89,-0.29,72.03,-27.09,-38.57,
4:10:27,-0.1,0.88,-0.27,79.8,-26.74,-37.03,
4:10:27,-0.09,0.91,-0.26,80.01,-20.09,-37.1,
4:10:27,-0.12,0.93,-0.29,82.88,-16.73,-40.11,
4:10:27,-0.18,0.94,-0.29,90.09,-17.71,-43.33,
4:10:27,-0.19,0.94,-0.24,98.98,-14.63,-45.22,
4:10:27,-0.21,0.94,-0.2,108.85,-4.76,-45.08,
4:10:27,-0.22,0.96,-0.17,118.93,10.22,-44.38,
4:10:27,-0.25,0.97,-0.16,127.54,22.68,-43.12,
4:10:27,-0.28,0.97,-0.15,137.83,31.64,-41.23,
4:10:27,-0.29,1.02,-0.12,142.59,37.52,-41.23,
4:10:27,-0.31,1.05,-0.11,140.28,40.18,-41.51,
4:10:27,-0.33,1.04,-0.08,135.66,41.37,-40.67,
4:10:27,-0.33,1,-0.03,144.83,42.98,-40.04,
4:10:27,-0.17,0.78,0.49,232.89,89.67,-39.27,
4:10:27,-0.06,1.56,1.68,110.25,99.12,-33.74,
4:10:27,-0.19,1.52,0.39,-37.31,-55.79,-14.56,
4:10:27,-0.13,1.11,-0.02,-62.44,-60.41,-21.98,
4:10:27,-0.07,0.9,-0.2,-71.82,-36.96,-21.91,
4:10:27,-0.05,0.9,-0.28,-79.17,-23.17,-16.8,
4:10:27,-0.04,0.98,-0.32,-76.65,-14.91,-17.92,
4:10:27,-0.02,0.98,-0.34,-66.43,-0.07,-19.25,
4:10:27,0,1.04,-0.36,-56.91,9.38,-16.38,
4:10:27,0.02,1.08,-0.38,-56.84,15.68,-12.39,
4:10:27,0.04,1.1,-0.4,-49.98,14.98,-11.06,
4:10:27,0.07,1.13,-0.35,-48.58,17.29,-10.08,
4:10:27,0.1,1.16,-0.3,-46.9,26.04,-3.57,
4:10:27,0.12,1.24,-0.26,-39.55,38.5,4.55,
4:10:27,0.09,1.34,-0.23,-25.97,51.45,10.71,
4:10:27,-0.01,1.35,-0.24,4.55,38.99,20.3,
4:10:27,-0.35,1.38,-0.09,40.81,-85.61,79.8,
4:10:27,-0.42,1.59,0.97,4.69,-198.59,99.26,
4:10:27,-0.08,1.67,1.17,-72.87,-85.26,72.17,
4:10:27,0.09,1.26,0.39,-119.63,48.86,67.97,
4:10:27,-0.09,1.17,-0.08,-139.51,94.08,69.23,
4:10:27,-0.25,1.16,-0.34,-136.36,101.71,73.99,
4:10:27,-0.47,1.15,-0.49,-99.96,62.93,70.42,
4:10:27,-0.67,1.25,-0.51,-91.21,-6.65,74.34,
4:10:27,-0.76,1.29,-0.44,-90.72,-66.57,69.02,
4:10:27,-0.78,1.2,-0.38,-69.86,-102.9,62.16,
4:10:27,-0.8,1.08,-0.21,-40.18,-116.83,59.64,
4:10:27,-0.85,0.96,0.01,-10.5,-100.59,67.27,
4:10:27,-0.89,0.93,0.2,-13.23,-80.71,76.37,
4:10:27,-0.77,0.83,0.08,-23.52,-77.42,80.57,
4:10:27,-0.62,0.88,-0.07,-23.94,-87.15,67.69,
4:10:27,-0.55,0.83,-0.14,-27.51,-89.46,54.04,
4:10:27,-0.49,0.81,-0.19,-35.56,-84.91,48.86,
4:10:27,-0.43,0.8,-0.23,-38.92,-77.77,50.89,
4:10:27,-0.34,0.8,-0.24,-25.27,-65.8,49.84,
4:10:27,-0.22,0.8,-0.23,-15.61,-49.63,50.05,
4:10:27,-0.15,0.79,-0.25,-6.86,-37.31,53.76,
4:10:27,-0.2,0.83,-0.3,4.48,-58.87,59.01,
4:10:27,-0.06,0.85,-0.14,24.99,-69.79,59.64,
4:10:27,0.05,0.9,-0.04,48.51,-58.24,60.76,
4:10:27,0.07,0.95,0.1,52.57,-42.14,60.76,
4:10:27,0.06,0.96,0.17,27.72,-8.12,58.1,
4:10:27,-0.06,0.87,0.09,3.08,41.86,51.24,
4:10:27,-0.35,0.8,-0.04,-9.45,89.04,42.98,
4:10:27,-0.39,0.7,-0.14,-9.94,93.31,37.03,
4:10:27,-0.49,0.6,-0.19,0.21,74.76,39.34,
4:10:27,-0.52,0.57,-0.15,7.84,59.57,40.74,
4:10:27,-0.5,0.57,-0.1,12.88,59.71,31.29,
4:10:27,-0.49,0.53,-0.09,21.28,65.94,9.66,
4:10:27,-0.56,0.49,-0.13,20.16,53.9,4.13,
4:10:27,-0.53,0.52,-0.12,17.43,35.98,0.91,
4:10:27,-0.45,0.53,-0.08,20.02,29.12,-9.87,
4:10:27,-0.4,0.52,-0.08,24.64,34.58,-23.24,
4:10:27,-0.39,0.56,-0.13,31.64,37.73,-29.05,
4:10:27,-0.4,0.62,-0.12,35.56,39.83,-38.5,
4:10:27,-0.37,0.68,-0.07,38.08,69.3,-48.09,
4:10:27,-0.37,0.74,-0.04,48.86,62.51,-53.27,
4:10:27,-0.34,0.87,0.07,55.09,63.91,-52.85,
4:10:27,-0.29,1.03,0.22,50.61,56.07,-47.67,
4:10:27,-0.18,1.23,0.37,34.09,40.46,-39.62,
4:10:27,0.01,1.4,0.41,23.59,24.71,-29.68,
4:10:27,0.31,1.5,0.29,22.05,10.15,-20.93,
4:10:27,0.6,1.52,0.08,24.5,0.21,-13.51,
4:10:27,0.83,1.43,0,36.96,7.21,-9.31,
4:10:27,0.8,1.36,-0.02,43.96,22.82,-1.47,
4:10:27,0.59,1.33,0.05,31.57,36.12,-0.07,
4:10:27,0.41,1.2,0.1,20.02,40.67,2.45,
4:10:27,0.29,1.12,0.16,11.62,46.83,4.62,
4:10:27,0.16,1.16,0.2,3.15,60.9,6.93,
4:10:27,0.01,1.17,0.1,-3.64,69.58,4.76,
4:10:27,-0.19,1.16,-0.16,0.56,58.31,3.92,
4:10:27,-0.36,1.17,-0.35,10.5,31.15,2.24,
4:10:27,-0.41,1.08,-0.42,8.68,6.79,2.59,
4:10:27,-0.43,0.95,-0.4,7.28,-5.74,-2.38,
4:10:27,-0.4,0.82,-0.2,13.86,3.85,-7.56,
4:10:27,-0.45,0.9,-0.01,42.28,43.68,-15.12,
4:10:27,-0.67,1.41,0.55,57.33,97.86,-32.62,
4:10:27,-1.02,2.22,0.63,-17.5,67.9,9.17,
4:10:27,-0.85,2.01,-0.28,-50.82,-53.55,18.83,
4:10:27,-0.49,1.48,-0.37,-54.46,-56,-12.18,
4:10:27,-0.3,0.94,-0.27,-60.83,-28.98,-8.47,
4:10:27,-0.28,0.64,-0.21,-54.18,-16.1,-4.76,
4:10:27,-0.28,0.42,-0.17,-48.16,-23.59,-2.87,
4:10:27,-0.31,0.3,-0.14,-33.88,-36.61,-2.31,
4:10:27,-0.37,0.26,-0.1,-21,-51.38,-1.89,
4:10:27,-0.44,0.37,-0.06,-18.48,-63.35,-3.5,
4:10:27,-0.54,0.57,-0.06,-33.18,-71.47,-4.97,
4:10:27,-0.61,0.78,-0.08,-47.46,-79.45,-2.03,
4:10:27,-0.64,0.93,-0.09,-57.33,-78.12,1.54,
4:10:27,-0.67,1.01,-0.14,-57.96,-75.46,0.91,
4:10:27,-0.67,0.98,-0.2,-41.09,-74.13,-4.69,
4:10:27,-0.65,0.95,-0.24,-26.88,-74.27,-16.38,
4:10:27,-0.56,0.86,-0.24,-32.62,-61.04,-25.27,
4:10:27,-0.49,0.75,-0.25,-41.93,-32.13,-29.4,
4:10:27,-0.51,0.64,-0.31,-26.25,-10.15,-27.65,
4:10:27,-0.48,0.69,-0.31,-2.1,2.59,-25.55,
4:10:27,-0.39,0.79,-0.25,-7.21,20.37,-28.63,
4:10:27,-0.31,0.78,-0.25,-18.27,41.23,-25.62,
4:10:27,-0.29,0.84,-0.27,-28.28,55.09,-21.28,
4:10:27,-0.28,0.97,-0.25,-47.53,59.71,-14.21,
4:10:27,-0.26,1.03,-0.23,-57.05,59.36,-17.92,
4:10:27,-0.25,1.05,-0.21,-48.65,56.49,-41.3,
4:10:27,-0.21,1,-0.19,-32.34,56.28,-57.82,
4:10:27,-0.21,0.92,-0.22,-14.84,53.76,-59.08,
4:10:27,-0.26,0.93,-0.3,-3.29,30.17,-50.89,
4:10:27,-0.29,0.99,-0.32,2.94,0.28,-45.29,
4:10:27,-0.24,1.01,-0.28,7.14,-20.3,-40.04,
4:10:27,-0.17,1,-0.27,17.22,-34.09,-33.46,
4:10:27,-0.13,0.97,-0.3,28.35,-47.32,-26.53,
4:10:27,-0.07,0.91,-0.35,47.88,-60.13,-17.57,
4:10:27,-0.02,0.78,-0.43,88.83,-72.66,-3.22,
4:10:27,0,0.79,-0.46,123.97,-86.38,7,
4:10:27,0,0.95,-0.39,120.4,-92.4,0.14,
4:10:27,-0.03,1,-0.34,102.27,-91.35,-23.45,
4:10:27,-0.07,0.97,-0.27,94.85,-84,-36.26,
4:10:27,-0.09,0.97,-0.17,104.3,-64.12,-45.29,
4:10:27,-0.14,0.97,-0.12,120.05,-32.06,-52.99,
4:10:27,-0.2,0.97,-0.09,135.8,-10.85,-54.46,
4:10:27,-0.24,0.98,-0.08,142.8,4.41,-49.56,
4:10:27,-0.28,1.02,-0.09,138.74,13.51,-48.79,
4:10:27,-0.32,1.03,-0.08,128.31,19.11,-49.77,
4:10:27,-0.34,1.04,-0.09,121.94,20.23,-50.4,
4:10:27,-0.35,1.03,-0.08,117.74,19.04,-49.14,
4:10:27,-0.33,1.01,-0.07,113.75,17.71,-45.85,
4:10:27,-0.3,1,-0.05,105.56,15.4,-43.82,
4:10:27,-0.27,0.96,0.02,102.55,13.02,-45.36,
4:10:27,-0.12,0.9,0.27,133.21,35.84,-51.38,
4:10:27,-0.02,1.02,0.42,143.29,67.13,-51.73,
4:10:27,0.02,1.2,0.36,71.4,55.23,-41.93,
4:10:27,-0.04,1.21,0.05,-20.09,10.43,-27.86,
4:10:27,-0.04,1.1,-0.13,-53.97,-20.37,-25.69,
4:10:27,-0.03,1.03,-0.23,-62.51,-32.41,-20.65,
4:10:27,-0.03,0.99,-0.28,-61.04,-34.02,-16.38,
4:10:27,-0.02,0.98,-0.3,-49.7,-28,-16.8,
4:10:27,0.04,0.98,-0.31,-40.88,-14.28,-14.14,
4:10:27,0.06,1.02,-0.32,-37.17,3.78,-12.67,
4:10:27,0.07,1.07,-0.36,-35.63,16.73,-10.5,
4:10:27,0.06,1.15,-0.35,-33.46,20.23,-9.31,
4:10:27,0.06,1.18,-0.31,-25.62,19.53,-10.15,
4:10:27,0.08,1.18,-0.24,-15.33,18.9,-5.95,
4:10:27,0.06,1.22,-0.19,-9.8,15.61,1.12,
4:10:27,0.01,1.27,-0.14,1.26,0.42,12.88,
4:10:27,-0.12,1.35,0.06,28.21,-45.22,36.75,
4:10:27,-0.21,1.78,0.91,23.03,-79.03,60.27,
4:10:27,-0.11,1.73,0.72,-106.54,-44.31,60.83,
4:10:27,-0.09,1.34,0.27,-144.62,0.84,64.33,
4:10:27,-0.16,1.19,0.02,-145.46,21.21,76.58,
4:10:27,-0.21,1.14,-0.11,-143.36,24.29,82.81,
4:10:27,-0.25,1.06,-0.22,-143.85,24.71,82.53,
4:10:27,-0.31,1.02,-0.33,-140.84,24.36,84.77,
4:10:27,-0.44,1.06,-0.45,-129.78,9.45,87.29,
4:10:27,-0.59,1.12,-0.51,-109.62,-20.44,86.1,
4:10:27,-0.73,1.15,-0.54,-75.32,-57.26,79.45,
4:10:27,-0.86,1.1,-0.48,-41.02,-98.35,73.92,
4:10:43,-0.96,0.03,-0.25,-61.25,-44.38,83.02,
4:10:43,-0.92,-0.01,-0.2,-56.42,-31.71,79.1,
4:10:43,-0.93,-0.02,-0.13,-58.03,-22.4,72.31,
4:10:43,-0.99,0.03,-0.1,-82.88,-22.89,73.85,
4:10:43,-0.75,-0.13,-0.47,-60.9,29.05,71.33,
4:10:43,-1.01,0.21,0.04,-107.8,-8.05,71.61,
4:10:43,-0.9,0,0.16,-137.06,-26.39,48.58,
4:10:43,-0.86,-0.25,0.18,-120.89,-22.54,41.65,
4:10:43,-0.88,-0.27,0.13,-100.1,-21,34.09,
4:10:43,-0.84,-0.07,0.08,-109.69,-18.48,24.78,
4:10:43,-0.88,-0.01,0.04,-114.03,-16.45,21.56,
4:10:43,-0.89,-0.07,0.06,-112.21,-12.88,14.77,
4:10:43,-0.91,-0.23,0.09,-107.8,-10.5,17.5,
4:10:43,-0.97,-0.3,0.12,-111.86,-5.04,25.13,
4:10:43,-0.99,-0.31,0.12,-117.88,2.8,31.29,
4:10:43,-0.96,-0.29,0.11,-123.2,2.31,36.12,
4:10:43,-0.89,-0.29,0.13,-128.87,2.45,37.38,
4:10:43,-0.67,-0.03,0.23,-139.93,16.59,13.16,
4:10:43,-0.66,-0.06,0.17,-145.46,26.88,-21.35,
4:10:43,-0.78,-0.07,-0.03,-149.87,13.93,-44.24,
4:10:43,-0.85,-0.13,-0.08,-145.04,-6.58,-45.85,
4:10:43,-0.89,-0.12,-0.06,-134.4,-18.06,-42.7,
4:10:43,-0.92,-0.09,-0.04,-118.72,-15.33,-35.28,
4:10:43,-0.96,-0.14,-0.06,-92.68,-7.49,-34.72,
4:10:43,-0.95,-0.13,0.03,-79.24,-0.7,-33.39,
4:10:43,-0.95,-0.24,0.08,-60.76,6.09,-27.16,
4:10:43,-0.91,-0.17,0.22,-46.13,22.75,-15.47,
4:10:43,-0.91,-0.09,0.29,-35.07,38.43,-3.5,
4:10:43,-0.94,-0.11,0.28,-20.09,51.17,4.97,
4:10:43,-1,-0.09,0.26,-9.03,54.32,12.32,
4:10:43,-1.02,-0.04,0.25,-12.6,52.5,17.29,
4:10:43,-1.06,0.06,0.2,-34.37,40.11,18.06,
4:10:43,-1.11,0.08,0.2,-62.09,24.15,18.55,
4:10:43,-1.08,0.02,0.25,-74.34,13.23,16.94,
4:10:43,-1.03,-0.04,0.31,-70.98,10.64,17.5,
4:10:43,-1.01,-0.07,0.35,-62.58,11.76,18.76,
4:10:43,-1.02,-0.08,0.36,-51.8,13.02,21.21,
4:10:43,-1.03,-0.08,0.36,-38.01,18.2,22.05,
4:10:43,-1.03,-0.09,0.33,-24.85,26.74,20.72,
4:10:43,-1.02,-0.07,0.29,-13.09,29.54,19.32,
4:10:43,-1.01,-0.04,0.25,-5.81,28.77,17.71,
4:10:43,-1,0,0.25,-5.39,24.99,17.15,
4:10:43,-0.99,-0.01,0.23,-3.43,23.66,17.71,
4:10:43,-0.97,-0.03,0.21,1.54,24.36,18.27,
4:10:43,-0.94,-0.06,0.2,6.23,30.66,20.65,
4:10:43,-0.91,-0.08,0.15,11.27,41.23,24.43,
4:10:43,-0.98,-0.05,0.03,5.39,42.91,27.86,
4:10:43,-0.95,-0.03,0.05,-0.91,53.13,28.07,
4:10:43,-1.09,0.03,0.03,-12.18,41.58,32.34,
4:10:43,-1.1,0.03,0.06,-19.11,35.21,41.86,
4:10:43,-1.05,0.09,0.16,-14,38.57,44.38,
4:10:43,-0.99,0.15,0.22,-12.53,47.32,33.81,
4:10:43,-1.03,0.09,0.11,-8.82,42.84,23.73,
4:10:43,-1.14,-0.02,-0.04,-3.64,24.78,17.57,
4:10:43,-1.31,-0.08,-0.07,-18.48,12.6,11.76,
4:10:43,-1.54,-0.03,0.02,-71.4,18.48,-3.01,
4:10:43,-1.51,-0.03,0.15,-155.75,52.5,35.7,
4:10:43,-1.48,0.1,0.1,-197.75,63.07,93.31,
4:10:43,-1.45,0.24,-0.07,-170.73,28.98,110.11,
4:10:43,-1.21,0.28,-0.26,-102.06,2.94,12.6,
4:10:43,-0.76,-0.4,-0.32,-67.62,-16.17,12.18,
4:10:43,-0.63,-0.37,-0.23,-63.21,-21.49,33.53,
4:10:43,-0.64,-0.33,-0.29,-59.15,-21.21,29.96,
4:10:43,-0.67,-0.34,-0.25,-50.26,-10.36,18.13,
4:10:43,-0.71,-0.35,-0.29,-36.96,4.9,5.81,
4:10:43,-0.74,-0.19,-0.29,-29.61,17.57,-4.2,
4:10:43,-0.86,0.08,-0.36,-27.58,20.37,-12.04,
4:10:43,-1,0.27,-0.51,-7.21,21.63,-31.29,
4:10:43,-1.02,0.16,-0.61,47.39,32.76,-32.62,
4:10:43,-0.92,0.04,-0.39,111.37,70.21,-15.54,
4:10:43,-0.89,0.19,-0.16,114.8,101.15,-6.72,
4:10:43,-1.01,0.27,-0.06,71.96,77.21,-15.75,
4:10:43,-0.95,0.12,-0.08,32.41,59.64,-18.34,
4:10:43,-0.91,-0.08,-0.11,17.71,58.66,-14.91,
4:10:43,-0.92,-0.18,-0.16,14.98,66.57,-20.86,
4:10:43,-0.98,-0.28,-0.24,20.86,61.04,-27.58,
4:10:43,-1,-0.29,-0.27,37.38,58.24,-28.98,
4:10:43,-1.09,-0.17,-0.37,59.99,50.61,-24.08,
4:10:43,-1.12,0.07,-0.35,63,39.48,-17.36,
4:10:43,-1.08,0.27,-0.27,44.03,31.92,-14,
4:10:43,-1.07,0.29,-0.24,24.08,25.55,-10.22,
4:10:43,-0.99,0.21,-0.23,25.9,24.57,-5.53,
4:10:43,-0.92,0.14,-0.25,35.35,25.62,-2.38,
4:10:43,-0.93,0.03,-0.28,55.23,22.05,-5.18,
4:10:43,-0.91,0,-0.27,80.36,20.09,-12.11,
4:10:43,-0.92,0.08,-0.25,100.87,17.57,-15.4,
4:10:43,-0.95,0.2,-0.25,104.58,14.49,-12.6,
4:10:43,-0.97,0.27,-0.22,97.44,15.89,-14.56,
4:10:43,-1.02,0.26,-0.22,85.89,11.48,-16.87,
4:10:43,-1.05,0.22,-0.22,75.11,2.03,-21.07,
4:10:43,-0.95,0.13,-0.17,58.1,3.43,-22.4,
4:10:43,-0.96,-0.08,-0.25,50.26,0.91,-17.5,
4:10:43,-0.92,-0.08,-0.19,56.84,3.57,-22.33,
4:10:43,-0.94,-0.01,-0.09,80.15,9.8,-27.93,
4:10:43,-0.9,0,-0.11,84.98,12.88,-27.86,
4:10:43,-0.95,0.07,-0.16,71.96,9.31,-31.71,
4:10:43,-0.98,0.13,-0.19,49.63,7.49,-30.17,
4:10:43,-0.97,0.12,-0.21,31.01,10.36,-27.3,
4:10:43,-0.97,0.14,-0.19,10.15,11.06,-24.85,
4:10:43,-0.93,0.09,-0.16,-14.77,19.04,-28.07,
4:10:43,-0.92,0,-0.18,-33.95,25.34,-35.7,
4:10:43,-1.02,-0.03,-0.2,-37.73,23.17,-42.84,
4:10:43,-0.99,-0.09,-0.2,-13.02,18.06,-48.51,
4:10:43,-0.96,-0.09,-0.2,13.37,19.18,-55.65,
4:10:43,-0.99,-0.07,-0.22,31.29,21.7,-68.18,
4:10:43,-0.97,-0.12,-0.22,45.64,20.65,-72.52,
4:10:43,-0.79,-0.16,-0.23,50.82,25.76,-55.09,
4:10:43,-0.93,-0.1,-0.26,41.93,14.7,-36.47,
4:10:43,-1.03,-0.04,-0.29,42.49,5.11,-36.68,
4:10:43,-1.06,-0.07,-0.28,52.5,3.71,-43.4,
4:10:43,-0.95,-0.09,-0.24,77.91,11.41,-36.12,
4:10:43,-1.04,0.05,-0.16,83.02,9.17,-38.71,
4:10:43,-1.08,0.08,-0.12,71.26,-1.61,-41.86,
4:10:43,-1.06,0.14,-0.13,59.36,-5.39,-41.65,
4:10:43,-0.99,0.14,-0.17,41.23,-0.98,-39.2,
4:10:43,-1,0.13,-0.21,33.81,0.21,-36.54,
4:10:43,-1.03,0.14,-0.2,35,-3.99,-35.98,
4:10:43,-1.02,0.13,-0.17,37.45,-7.07,-32.27,
4:10:43,-1.02,0.14,-0.16,41.37,-8.54,-24.36,
4:10:43,-1.13,0.16,-0.2,45.43,-14.98,-20.86,
4:10:43,-1.16,0.14,-0.23,50.54,-20.58,-21.21,
4:10:43,-1.19,0.13,-0.2,46.34,-27.72,-21.84,
4:10:43,-1.15,0.1,-0.14,41.37,-33.39,-23.03,
4:10:43,-1.18,0.07,-0.08,32.55,-36.61,-20.44,
4:10:43,-1.27,0.04,-0.08,25.97,-37.17,-11.9,
4:10:43,-1.33,0.04,-0.05,22.82,-36.89,-2.8,
4:10:43,-1.33,0.04,0.01,20.65,-40.25,2.73,
4:10:43,-1.31,0.03,0.04,2.38,-52.08,7.84,
4:10:43,-1.31,0.03,0.11,-22.12,-70.21,16.17,
4:10:43,-1.33,0.07,0.36,-32.69,-86.52,27.09,
4:10:43,-1.26,0.09,0.17,-44.03,-96.39,41.72,
4:10:43,-1.33,0.09,0.07,-38.78,-101.64,51.03,
4:10:43,-1.3,0.06,-0.01,-34.58,-106.61,52.15,
4:10:43,-1.23,-0.07,-0.06,-21.21,-110.95,53.62,
4:10:43,-1.16,-0.18,-0.07,-9.8,-110.39,52.64,
4:10:43,-1.15,-0.25,-0.08,-7.91,-89.95,52.43,
4:10:43,-1.13,-0.29,-0.08,-17.29,-102.9,56.35,
4:10:43,-1.15,-0.29,-0.12,-30.8,-99.68,60.06,
4:10:43,-1.17,-0.31,-0.17,-36.12,-99.05,63.14,
4:10:43,-1.12,-0.31,-0.15,-35.7,-94.15,65.1,
4:10:43,-1.06,-0.26,-0.12,-34.51,-83.16,64.89,
4:10:43,-1.03,-0.18,-0.13,-34.51,-70.07,69.79,
4:10:43,-1.03,-0.1,-0.13,-40.74,-54.04,81.06,
4:10:43,-0.99,-0.06,-0.06,-49.07,-33.53,87.43,
4:10:43,-1,-0.02,0.02,-53.9,-17.43,93.03,
4:10:43,-1.02,0.04,0.1,-57.54,-1.12,88.06,
4:10:43,-1.01,0.06,0.11,-64.47,10.15,83.58,
4:10:43,-0.97,0.04,0.05,-66.71,13.09,82.95,
4:10:43,-0.92,0.01,0,-64.68,13.09,80.5,
4:10:43,-0.97,0.02,-0.08,-63.07,7.91,79.59,
4:10:43,-0.95,0.05,-0.16,-76.58,4.55,65.73,
4:10:43,-0.98,0.06,-0.25,-101.15,-3.01,62.51,
4:10:43,-1.01,0,-0.27,-123.97,-11.27,63.35,
4:10:43,-0.93,-0.15,-0.23,-132.09,-17.08,84.49,
4:10:43,-0.94,-0.12,-0.16,-132.44,-14.42,98.91,
4:10:43,-1.02,0.06,-0.17,-139.44,-14.07,87.36,
4:10:43,-0.92,-0.02,-0.14,-122.08,-7.35,75.88,
4:10:43,-0.86,-0.08,-0.16,-106.19,-2.38,66.78,
4:10:43,-0.85,-0.06,-0.14,-98.77,4.83,60.62,
4:10:43,-0.87,-0.03,-0.09,-86.24,7.84,48.23,
4:10:43,-1,-0.08,-0.04,-67.41,6.02,38.85,
4:10:43,-0.86,-0.12,0,-68.81,4.27,34.23,
4:10:43,-0.87,-0.1,0.01,-81.41,-1.68,30.45,
4:10:43,-0.83,-0.12,0.05,-102.06,-4.9,26.6,
4:10:43,-0.83,-0.16,0.07,-109.69,-4.97,24.78,
4:10:43,-0.76,-0.29,0.08,-95.27,3.78,25.06,
4:10:43,-0.77,-0.26,0.08,-84.7,10.08,22.33,
4:10:43,-0.74,-0.26,0.11,-74.83,17.85,21.7,
4:10:43,-0.72,-0.22,0.09,-70.21,26.11,19.88,
4:10:43,-0.72,-0.2,0.07,-58.94,33.18,17.15,
4:10:43,-0.78,-0.12,0.02,-49.21,38.01,10.15,
4:10:43,-0.82,-0.06,-0.01,-45.85,38.78,6.23,
4:10:43,-0.93,0.1,-0.2,-63.98,25.97,6.37,
4:10:43,-0.96,-0.07,0.08,-133.84,13.09,5.32,
4:10:43,-1.07,0.06,0.24,-87.29,16.94,8.61,
4:10:43,-1.05,0.19,0.18,-75.74,18.13,0.35,
4:10:43,-1.07,0.16,0.16,-94.43,5.32,-6.65,
4:10:43,-1.04,0.1,0.22,-102.2,-2.17,-2.1,
4:10:43,-0.97,0.07,0.28,-104.72,7.21,-3.71,
4:10:43,-1,0.04,0.28,-84.35,21.42,-0.56,
4:10:43,-1.04,0.13,0.29,-73.85,29.26,-3.64,
4:10:43,-1.08,0.22,0.26,-74.27,31.5,-4.76,
4:10:43,-1.02,0.24,0.23,-65.59,44.17,-2.03,
4:10:43,-1,0.26,0.19,-37.31,65.03,13.51,
4:10:43,-1.13,0.3,0.16,-33.25,59.5,16.59,
4:10:43,-1.05,0.26,0.21,-23.66,57.61,17.29,
4:10:43,-1.04,0.2,0.25,-13.79,58.52,13.72,
4:10:43,-1.05,0.22,0.22,-10.22,52.5,11.97,
4:10:43,-1,0.25,0.17,-24.64,49.07,13.65,
4:10:43,-0.95,0.22,0.1,-39.69,47.18,16.45,
4:10:43,-0.92,0.2,0.06,-55.58,39.9,24.01,
4:10:43,-0.91,0.11,-0.13,-27.23,30.59,20.65,
4:10:43,-0.91,0.01,-0.26,28.56,22.4,12.39,
4:10:43,-0.98,0,-0.24,71.12,20.3,0.35,
4:10:43,-1.05,0.02,-0.11,74.83,28.35,-0.91,
4:10:43,-1.21,-0.03,0.07,54.04,63.91,-14.84,
4:10:43,-1.66,-0.08,0.04,2.73,100.31,-33.88,
4:10:43,-2.01,0.05,0.23,-104.65,74.2,6.65,
4:10:43,-2.16,-0.06,0.23,-202.23,5.04,93.24,
4:10:43,-1.63,-0.4,-0.13,10.92,-6.79,131.74,
4:10:43,-0.88,-0.27,-0.4,227.92,20.79,110.04,
4:10:43,-0.23,-0.01,-0.26,284.83,103.25,127.26,
4:10:43,-0.6,0.28,-0.49,177.1,93.45,73.29,
4:10:43,-0.58,-0.02,-0.47,112.91,69.51,21.98,
4:10:43,-0.58,-0.39,-0.7,121.59,22.54,-4.76,
4:10:43,-0.66,-0.18,-0.41,99.4,-13.72,-20.23,
4:10:43,-0.65,-0.14,-0.34,38.22,-9.87,-44.52,
4:10:43,-0.75,-0.23,-0.58,17.85,7.91,-60.55,
4:10:43,-0.94,-0.2,-0.77,57.47,13.23,-59.36,
4:10:43,-1.03,0.18,-0.56,69.79,13.02,-36.26,
4:10:43,-1.03,0.54,-0.36,47.04,27.86,-25.48,
4:10:43,-0.91,0.54,-0.32,20.51,34.93,-16.45,
4:10:43,-0.92,0.5,-0.25,-50.05,33.11,-28,
4:10:43,-0.87,0.31,-0.27,-131.88,31.71,-35.98,
4:10:43,-0.91,0.28,-0.37,-214.13,27.86,-42.07,
4:10:43,-0.94,0.19,-0.38,-295.61,5.11,-51.87,
4:10:43,-0.96,-0.35,-0.51,-288.75,-21.35,-66.57,
4:10:43,-0.93,-0.74,-0.45,-106.68,-13.16,-107.52,
4:10:43,-0.86,-0.32,-0.07,-19.6,16.31,-70.42,
4:10:43,-0.87,-0.01,-0.14,-15.33,35.56,-54.39,
4:10:43,-0.91,0.07,-0.39,24.57,22.26,-50.26,
4:10:43,-0.83,0.06,-0.23,48.86,0.07,-47.46,
4:10:43,-0.82,0.11,-0.12,41.86,13.86,-54.6,
4:10:43,-0.86,0.01,-0.11,27.16,35.91,-55.86,
4:10:43,-0.95,-0.12,-0.19,33.81,48.79,-51.73,
4:10:43,-1,-0.11,-0.31,64.75,34.79,-44.73,
4:10:43,-1,0.05,-0.31,84.63,10.57,-50.47,
4:10:43,-0.76,-0.04,-0.07,155.61,54.67,-50.19,
4:10:43,-0.92,0.23,-0.17,94.71,72.17,-40.95,
4:10:43,-1.02,0.31,-0.29,41.86,47.25,-31.99,
4:10:43,-1.06,0.35,-0.33,0.28,22.47,-34.72,
4:10:43,-1.06,0.3,-0.37,-27.02,8.33,-39.62,
4:10:43,-1,0.2,-0.37,-64.75,6.23,-32.83,
4:10:43,-0.98,0.07,-0.34,-101.85,3.57,-25.06,
4:10:43,-0.97,-0.06,-0.29,-121.8,-1.12,-30.94,
4:10:43,-0.97,-0.22,-0.25,-116.06,-3.71,-40.32,
4:10:43,-0.93,-0.27,-0.18,-87.5,1.26,-43.4,
4:10:43,-0.96,-0.17,-0.17,-75.88,2.17,-45.43,
4:10:43,-1.02,-0.05,-0.22,-81.69,-12.6,-50.82,
4:10:43,-1.06,0.01,-0.27,-91.35,-39.2,-51.31,
4:10:43,-1.01,0,-0.1,-93.52,-47.11,-44.73,
4:10:43,-0.97,-0.04,-0.06,-67.76,-27.44,-34.16,
4:10:43,-0.93,0.01,-0.09,-29.89,-0.14,-14.84,
4:10:43,-0.98,0.28,-0.17,-40.18,7.35,-6.79,
4:10:43,-1.07,0.17,-0.19,-59.5,-6.37,-11.97,
4:10:43,-0.88,-0.04,-0.16,-48.51,-13.58,-10.5,
4:10:43,-0.98,-0.09,-0.22,-1.19,-17.01,-17.43,
4:10:43,-0.97,-0.03,-0.25,42.84,-19.95,-24.43,
4:10:43,-0.97,0.03,-0.26,60.69,-22.75,-29.96,
4:10:43,-0.98,0.09,-0.25,61.04,-27.58,-36.26,
4:10:43,-0.97,0.12,-0.23,54.32,-32.62,-39.55,
4:10:43,-0.98,0.12,-0.21,46.83,-34.93,-34.58,
4:10:43,-1,0.15,-0.18,34.44,-30.87,-29.4,
4:10:43,-1.01,0.15,-0.15,21.63,-22.26,-21.56,
4:10:43,-0.99,0.15,-0.12,4.62,-8.89,-11.9,
4:10:43,-0.99,0.19,-0.11,-19.39,1.47,-9.8,
4:10:43,-1,0.16,-0.09,-46.06,7.84,-10.08,
4:10:43,-0.99,0.11,-0.07,-63.28,15.12,-8.47,
4:10:43,-1.02,0.05,-0.06,-61.6,30.45,-5.81,
4:10:43,-1.06,0.04,-0.08,-36.68,41.93,-7.63,
4:10:43,-1.07,0.03,-0.08,16.66,44.66,-6.72,
4:10:43,-1.06,0.06,-0.02,27.02,43.47,-2.03,
4:10:43,-1.11,0.12,-0.04,33.6,34.3,-1.05,
4:10:43,-1.22,0.19,-0.08,33.53,11.9,-5.88,
4:10:43,-1.3,0.22,-0.08,29.61,-8.96,-9.73,
4:10:43,-1.34,0.18,-0.05,33.95,-11.9,-3.15,
4:10:43,-1.34,0.14,-0.02,46.76,0.84,12.39,
4:10:43,-1.41,0.22,0.06,32.34,-8.75,28.07,
4:10:43,-1.48,0.22,0.09,2.73,-56.7,33.81,
4:10:43,-1.43,0.12,0.08,3.99,-99.12,42.07,
4:10:43,-1.26,0.04,-0.03,16.45,-110.81,54.18,
4:10:43,-1.21,0.14,-0.09,8.75,-108.99,58.94,
4:10:43,-1.12,0.11,-0.11,-34.16,-106.82,53.69,
4:10:43,-0.98,-0.05,-0.12,-66.36,-89.53,45.22,
4:10:43,-0.98,-0.18,-0.15,-80.22,-69.16,43.68,
4:10:43,-1.02,-0.27,-0.16,-80.57,-53.83,43.96,
4:10:43,-1.09,-0.31,-0.18,-70.42,-42.21,38.71,
4:10:43,-1.19,-0.34,-0.17,-56.42,-38.29,31.92,
4:10:43,-1.26,-0.35,-0.13,-37.03,-43.61,30.73,
4:10:43,-1.27,-0.29,-0.1,-16.17,-54.04,33.18,
4:10:43,-1.27,-0.28,-0.08,7.91,-69.3,32.13,
4:10:43,-1.16,-0.27,-0.02,24.29,-79.94,41.37,
4:10:43,-1.05,-0.21,-0.03,25.97,-82.04,48.37,
4:10:43,-0.97,-0.17,0,16.52,-79.8,48.23,
4:10:43,-0.95,-0.24,0,-7.63,-68.04,49.56,
4:10:43,-0.97,-0.32,0,-10.78,-53.69,48.65,
4:10:43,-0.99,-0.31,0,-13.02,-44.59,49.91,
4:10:43,-1.01,-0.23,0.04,-14.91,-41.72,46.41,
4:10:43,-1.01,-0.17,0.02,-2.45,-41.72,44.38,
4:10:43,-0.99,-0.07,-0.01,14.49,-37.73,41.02,
4:10:43,-1.02,0,-0.08,16.03,-39.9,42.91,
4:10:43,-1.12,0.08,-0.09,24.85,-54.39,43.12,
4:10:43,-1.09,0.2,-0.02,18.34,-59.08,55.51,
4:10:43,-1,0.28,-0.05,-23.1,-48.51,65.45,
4:10:43,-0.94,0.29,-0.03,-65.52,-32.27,60.97,
4:10:43,-0.91,0.14,0.03,-83.79,-28.07,62.09,
4:10:43,-0.89,-0.02,0.06,-85.47,-23.24,65.17,
4:10:43,-0.85,-0.12,0.07,-87.85,-14.35,61.6,
4:10:43,-0.85,-0.17,0.05,-82.67,-12.39,57.61,
4:10:43,-0.87,-0.12,0.06,-78.4,-14.14,50.61,
4:10:43,-0.84,-0.09,0.08,-72.87,-15.54,41.02,
4:10:43,-0.8,-0.07,0.13,-75.39,-11.69,34.93,
4:10:43,-0.82,-0.05,0.13,-75.11,-9.94,33.25,
4:10:43,-0.82,-0.07,0.12,-68.11,-11.48,30.73,
4:10:43,-0.8,-0.1,0.13,-59.08,-11.41,29.19,
4:10:43,-0.78,-0.13,0.14,-52.64,-8.19,26.39,
4:10:43,-0.76,-0.16,0.12,-45.43,-3.71,22.05,
4:10:43,-0.73,-0.14,0.15,-37.31,4.62,18.97,
4:10:43,-0.73,-0.13,0.12,-30.1,13.51,14.42,
4:10:43,-0.74,-0.14,0.1,-17.08,21.07,11.41,
4:10:43,-0.76,-0.13,0.08,-1.12,27.02,6.51,
4:10:43,-0.78,-0.1,0.09,7.98,29.96,2.73,
4:10:43,-0.82,-0.06,0.11,10.85,31.29,-0.98,
4:10:43,-0.85,0.01,0.13,7.28,29.12,-4.2,
4:10:43,-0.89,0.06,0.16,4.55,23.38,-7.98,
4:10:43,-0.89,0.09,0.22,2.66,22.05,-12.95,
4:10:43,-0.91,0.1,0.24,1.75,25.83,-14,
4:10:43,-0.93,0.1,0.25,-1.47,29.26,-12.46,
4:10:43,-0.94,0.09,0.29,-4.55,32.9,-8.05,
4:10:43,-0.99,0.1,0.32,-7.63,35.91,-2.94,
4:10:43,-0.99,0.16,0.37,-11.62,39.41,4.97,
4:10:43,-1,0.25,0.39,-35.28,45.57,14.7,
4:10:43,-1.05,0.37,0.38,-25.27,49.49,20.02,
4:10:43,-1.1,0.43,0.36,-23.17,53.48,22.33,
4:10:43,-1.17,0.49,0.33,-7.63,55.02,23.66,
4:10:43,-1.19,0.44,0.28,3.78,49.77,29.54,
4:10:43,-1.19,0.51,0.37,13.51,43.96,25.48,
4:10:43,-1.14,0.42,0.43,4.83,36.4,14.28,
4:10:43,-1.06,0.19,0.4,-11.69,26.81,11.9,
4:10:43,-1,0.1,0.3,-19.39,15.54,9.87,
4:10:43,-0.99,0.06,0.2,-18.83,6.16,6.09,
4:10:43,-0.99,-0.01,0.06,-3.71,-0.91,0.14,
4:10:43,-1.02,-0.07,-0.04,13.23,-7.91,-10.15,
4:10:43,-0.97,-0.13,-0.03,0.07,-7.21,-20.09,
4:10:43,-0.8,-0.17,0.02,6.65,6.86,-27.51,
4:10:43,-0.7,-0.23,0.02,1.96,27.02,-33.39,
4:10:43,-0.8,-0.23,0.05,5.81,52.71,-34.93,
4:10:43,-1.2,0,0.32,3.64,92.61,-38.57,
4:10:43,-1.86,0.39,0.46,-21.14,103.6,-37.94,
4:10:43,-2.31,0.3,0.2,12.81,7.28,32.69,
4:10:43,-1.78,0.56,-0.1,53.62,-29.26,43.89,
4:10:43,-1.24,0.41,-0.43,48.02,-31.5,35.84,
4:10:43,-0.76,0.06,-0.35,68.46,-31.01,41.23,
4:10:43,-0.58,-0.12,-0.1,79.66,-8.82,53.34,
4:10:43,-0.83,-0.4,-0.18,78.05,-7.91,47.74,
4:10:43,-0.92,-0.48,-0.23,94.5,-27.72,30.24,
4:10:43,-0.94,-0.39,-0.23,98.91,-51.03,-9.94,
4:10:43,-0.87,-0.29,-0.2,77.98,-71.33,-48.72,
4:10:43,-0.81,-0.28,-0.15,57.4,-77.98,-70.91,
4:10:43,-0.8,-0.32,-0.18,67.34,-71.96,-76.58,
4:10:43,-0.91,-0.26,-0.27,118.51,-66.78,-79.8,
4:10:43,-1.02,-0.17,-0.27,179.34,-63.35,-56.56,
4:10:43,-1.05,0.01,-0.17,209.16,-53.83,-49.28,
4:10:43,-1.07,0.16,-0.09,196.07,-36.89,-29.33,
4:10:43,-1.1,0.33,-0.06,153.86,-15.68,-16.59,
4:10:43,-0.98,0.46,-0.11,89.81,0.7,-24.71,
4:10:43,-0.8,0.33,-0.22,45.78,5.95,-39.2,
4:10:43,-0.74,0.08,-0.24,33.6,18.06,-35.98,
4:10:43,-0.81,-0.1,-0.17,51.1,40.32,-20.51,
4:10:43,-0.91,-0.11,-0.11,64.89,66.71,-16.59,
4:10:43,-0.98,-0.15,-0.09,66.29,86.94,-17.22,
4:10:43,-1.06,-0.17,-0.09,61.39,92.75,-14.42,
4:10:43,-1.07,-0.13,-0.07,50.89,90.02,-13.58,
4:10:43,-1.06,-0.07,-0.09,43.33,78.96,-18.34,
4:10:43,-1.04,-0.01,-0.09,43.47,61.04,-27.23,
4:10:43,-1.02,0.02,-0.07,49.42,42.63,-27.37,
4:10:43,-1.03,0.04,-0.06,59.99,28.63,-23.73,
4:10:43,-1.04,0.08,-0.07,74.27,15.05,-23.1,
4:10:43,-1.05,0.13,-0.08,86.45,6.23,-23.17,
4:10:43,-1.06,0.18,-0.08,88.27,-0.14,-22.89,
4:10:43,-1.05,0.23,-0.08,79.66,-2.94,-23.1,
4:10:43,-1.04,0.28,-0.09,65.17,-3.99,-23.94,
4:10:43,-1.04,0.34,-0.13,35.7,-7.56,-20.51,
4:10:43,-1.02,0.35,0,11.48,-6.58,-17.22,
4:10:43,-0.96,0.3,-0.09,1.19,0.7,-12.67,
4:10:43,-0.94,0.27,-0.1,3.78,10.71,-10.15,
4:10:43,-0.95,0.21,-0.1,12.67,19.74,-9.52,
4:10:43,-0.96,0.09,-0.11,27.93,27.23,-6.72,
4:10:43,-0.97,0.01,-0.12,47.25,30.45,-3.78,
4:10:43,-0.95,-0.02,-0.08,59.01,34.79,-3.71,
4:10:43,-0.93,-0.04,-0.05,54.32,41.58,-6.65,
4:10:43,-0.91,-0.06,-0.03,34.16,48.09,-13.51,
4:10:43,-0.9,-0.08,-0.04,-11.27,50.26,-21.98,
4:10:43,-0.9,-0.12,-0.1,-21.35,43.54,-30.24,
4:10:43,-0.93,-0.16,-0.14,-32.83,31.99,-30.31,
4:10:43,-0.98,-0.12,-0.14,-33.81,23.52,-29.96,
4:10:43,-1.01,-0.06,-0.12,-27.37,20.65,-33.74,
4:10:43,-1.01,-0.02,-0.09,-18.34,22.68,-33.74,
4:10:43,-1.01,0.01,-0.1,-5.74,26.11,-27.23,
4:10:43,-1.01,0.07,-0.12,10.01,25.2,-24.08,
4:10:43,-1,0.13,-0.12,26.67,19.67,-26.53,
4:10:43,-1,0.18,-0.1,37.1,12.32,-30.87,
4:10:43,-1,0.2,-0.09,38.08,5.74,-30.1,
4:10:43,-1.03,0.21,-0.09,38.08,2.59,-29.54,
4:10:43,-1.07,0.21,-0.09,34.72,-0.49,-29.05,
4:10:43,-1.08,0.2,-0.11,31.5,-3.15,-25.76,
4:10:43,-1.04,0.16,-0.14,35.14,-6.65,-18.55,
4:10:43,-1.01,0.17,-0.15,40.81,-11.27,-14.35,
4:10:43,-0.99,0.18,-0.13,42.49,-13.02,-14.7,
4:10:43,-0.99,0.2,-0.1,34.79,-10.99,-14.84,
4:10:43,-1,0.22,-0.08,18.48,-5.11,-13.72,
4:10:43,-1.02,0.25,-0.08,-3.5,1.4,-12.39,
4:10:43,-1.02,0.25,-0.1,-23.1,4.2,-12.6,
4:10:43,-1.04,0.22,-0.11,-29.54,5.53,-11.83,
4:10:43,-1.04,0.2,-0.09,-27.16,11.55,-7.91,
4:10:43,-1.05,0.21,-0.07,-22.75,18.83,-4.06,
4:10:43,-1.06,0.24,-0.02,-25.55,27.51,-1.12,
4:10:43,-1.07,0.26,0,-40.04,35.63,1.54,
4:10:43,-1.11,0.26,0,-50.61,36.82,4.76,
4:10:43,-1.14,0.24,0.05,-48.09,40.39,5.46,
4:10:43,-1.14,0.21,0.21,-26.74,64.33,9.94,
4:10:43,-1.2,0.22,0.15,-7.28,83.16,20.3,
4:10:43,-1.26,0.27,0.13,-6.09,73.08,29.61,
4:10:43,-1.39,0.28,0.08,-18.27,41.93,36.68,
4:10:43,-1.46,0.24,0.09,-30.38,-13.3,43.68,
4:10:43,-1.49,0.16,0.15,-36.47,-82.74,52.71,
4:10:43,-1.36,0.01,0.08,-21.84,-107.59,64.54,
4:10:43,-1.23,-0.06,-0.03,3.08,-126.28,74.9,
4:10:43,-1.15,0,-0.09,6.72,-126,66.71,
4:10:43,-1.1,-0.02,-0.16,-10.85,-107.94,48.51,
4:10:43,-1.2,-0.12,-0.24,-23.8,-87.85,47.32,
4:10:43,-1.21,-0.14,-0.18,-18.76,-66.15,48.58,
4:10:43,-1.14,-0.15,-0.1,-18.27,-45.85,50.26,
4:10:43,-1.16,-0.15,-0.09,-17.64,-34.16,53.27,
4:10:43,-1.19,-0.15,-0.05,-12.46,-30.24,50.4,
4:10:43,-1.19,-0.16,-0.06,-7.07,-33.95,45.99,
4:10:43,-1.2,-0.11,-0.02,-1.96,-42.84,37.73,
4:10:43,-1.17,-0.11,-0.04,-5.11,-53.41,29.47,
4:10:43,-1.11,-0.12,-0.04,-7.77,-64.82,27.58,
4:10:43,-1,-0.15,-0.04,-11.27,-64.05,24.5,
4:10:43,-0.99,-0.17,-0.06,-10.99,-58.38,23.1,
4:10:43,-0.99,-0.11,-0.07,-23.31,-48.93,27.58,
4:10:43,-1,0.02,-0.05,-38.36,-36.4,38.15,
4:10:43,-1.01,0.08,-0.05,-39.83,-26.88,48.37,
4:10:43,-1.04,0.04,-0.1,-12.95,-28.49,65.8,
4:10:43,-1.07,0.16,-0.11,11.34,-52.92,79.8,
4:10:43,-1.03,0.24,-0.09,26.88,-63.91,72.1,
4:10:43,-1,0.26,-0.06,16.17,-69.3,50.47,
4:10:43,-0.92,0.13,-0.02,-7.63,-58.52,49.35,
4:10:43,-0.88,0.04,-0.03,-25.48,-41.02,54.18,
4:10:43,-0.84,0.01,-0.04,-29.89,-27.37,55.02,
4:10:43,-0.82,0.02,-0.03,-36.47,-23.59,51.17,
4:10:43,-0.79,-0.02,-0.01,-37.03,-15.96,50.4,
4:10:43,-0.75,0.01,0.02,-38.71,-6.3,50.33,
4:10:43,-0.75,0.01,0.02,-36.54,-0.56,47.11,
4:10:43,-0.75,-0.04,0.06,-35.49,6.37,48.16,
4:10:43,-0.8,-0.08,0.06,-30.52,7.28,45.01,
4:10:43,-0.82,-0.17,0.05,-22.68,4.13,36.61,
4:10:43,-0.79,-0.17,0.06,-16.31,2.73,30.03,
4:10:43,-0.76,-0.11,0.06,-18.62,3.92,18.76,
4:10:43,-0.72,-0.09,0.06,-16.87,8.4,12.67,
4:10:43,-0.72,-0.08,0.05,-10.08,12.88,7.49,
4:10:43,-0.73,-0.07,0.04,-2.45,17.57,4.69,
4:10:43,-0.73,-0.03,0.04,3.36,22.19,1.33,
4:10:43,-0.78,0.01,0.04,5.67,24.43,-3.85,
4:10:43,-0.8,0.04,0.06,8.82,24.64,-7,
4:10:43,-0.85,0.07,0.08,10.92,23.66,-12.18,
4:10:43,-0.87,0.13,0.12,5.39,22.89,-16.45,
4:10:43,-0.92,0.18,0.14,-1.68,21.42,-21.28,
4:10:43,-0.96,0.24,0.16,-10.57,19.81,-25.62,
4:10:43,-1,0.31,0.2,-21.98,18.97,-28.7,
4:10:43,-1.01,0.32,0.24,-27.3,21.21,-28.35,
4:10:43,-1.03,0.34,0.28,-29.4,27.65,-21.56,
4:10:43,-1.06,0.35,0.31,-27.37,36.61,-12.39,
4:10:43,-1.1,0.41,0.35,-21.7,42.21,-2.31,
4:10:43,-1.08,0.52,0.38,-17.36,46.76,7.56,
4:10:43,-1.02,0.6,0.37,-18.69,49.28,10.29,
4:10:43,-1.02,0.6,0.3,-15.4,50.05,15.26,
4:10:43,-1.05,0.59,0.26,-15.4,47.46,15.47,
4:10:43,-1.09,0.51,0.28,-17.99,44.45,15.54,
4:10:43,-1.08,0.45,0.3,-23.03,42.35,14.91,
4:10:43,-1.08,0.35,0.26,-26.74,37.17,13.02,
4:10:43,-1.05,0.23,0.23,-22.89,30.17,12.18,
4:10:43,-1.04,0.11,0.09,7.28,24.22,10.15,
4:10:43,-1.05,0.1,-0.04,34.09,10.5,-3.15,
4:10:43,-1.01,0.03,-0.03,22.61,3.15,-18.06,
4:10:43,-0.93,-0.11,-0.09,-4.41,1.19,-26.6,
4:10:43,-0.96,-0.23,-0.13,-28.91,1.82,-37.94,
4:10:43,-1.27,-0.43,-0.08,-32.76,13.79,-47.53,
4:10:43,-1.56,-0.35,0.06,-27.3,43.26,-51.38,
4:10:43,-1.6,-0.04,0.36,-3.22,95.97,-48.09,
4:10:43,-1.77,0,0.19,104.93,95.76,-5.53,
4:10:43,-1.42,0.31,-0.25,146.23,1.82,41.86,
4:10:43,-0.9,0.41,-0.17,103.6,-35.7,36.82,
4:10:43,-0.72,0.17,-0.19,61.04,-46.76,26.11,
4:10:43,-0.76,-0.11,-0.22,46.2,-60.41,21.14,
4:10:43,-0.88,-0.23,-0.25,44.1,-78.82,4.97,
4:10:43,-0.92,-0.27,-0.2,56.84,-94.15,-13.58,
4:10:43,-0.86,-0.24,-0.14,57.33,-97.37,-32.41,
4:10:43,-0.82,-0.28,-0.1,57.19,-96.74,-39.97,
4:10:43,-0.8,-0.3,-0.08,66.85,-84.77,-37.24,
4:10:43,-0.88,-0.24,-0.08,89.18,-60.69,-38.85,
4:10:43,-0.95,-0.2,-0.14,123.27,-39.9,-39.13,
4:10:43,-0.95,-0.1,-0.16,132.51,-28.14,-29.61,
4:10:43,-0.95,0.05,-0.17,110.46,-18.48,-18.83,
4:10:43,-1,0.18,-0.18,69.02,-10.78,-15.26,
4:10:43,-1.04,0.26,-0.19,25.69,-0.35,-19.46,
4:10:43,-1.05,0.28,-0.2,-1.68,10.15,-29.89,
4:10:43,-0.99,0.22,-0.16,1.19,20.86,-33.81,
4:10:43,-0.92,0.16,-0.13,14.98,34.37,-31.64,
4:10:43,-0.93,0.11,-0.13,33.88,41.72,-28.28,
4:10:43,-0.96,0.05,-0.14,53.83,42.56,-24.71,
4:10:43,-1.05,0.04,-0.16,71.75,38.71,-22.05,
4:10:43,-1.09,0.05,-0.16,79.8,32.48,-22.05,
4:10:43,-1.07,0.08,-0.14,81.34,28.77,-23.24,
4:10:43,-1.04,0.1,-0.14,78.26,24.01,-22.12,
4:10:43,-1.02,0.12,-0.13,76.44,17.57,-15.61,
4:10:43,-1,0.12,-0.11,75.95,12.74,0.14,
4:10:43,-0.97,0.18,-0.1,69.44,11.69,19.18,
4:10:43,-0.96,0.25,-0.1,57.89,11.13,34.65,
4:10:43,-0.95,0.32,-0.08,43.05,14.07,37.8,
4:10:43,-0.93,0.37,-0.07,27.09,23.24,32.41,
4:10:43,-0.94,0.42,-0.07,7.84,31.99,17.08,
4:10:43,-0.92,0.38,-0.07,-7.14,39.76,3.85,
4:10:43,-0.92,0.37,-0.09,-11.76,48.65,-13.02,
4:10:43,-0.9,0.25,-0.08,-13.3,55.23,-20.44,
4:10:43,-0.93,0.17,-0.1,-14.21,58.38,-17.43,
4:10:43,-0.96,0.13,-0.11,-10.36,59.08,-13.65,
4:10:43,-0.95,0.12,-0.1,-7.56,59.57,-13.86,
4:10:43,-0.92,0.1,-0.09,-4.55,59.29,-15.26,
4:10:43,-0.89,0.09,-0.08,-2.73,58.03,-15.12,
4:10:43,-0.89,0.1,-0.08,-5.6,56.63,-15.4,
4:10:43,-0.92,0.09,-0.09,-9.59,53.55,-15.82,
4:10:43,-0.96,0.08,-0.12,-9.94,49.35,-17.43,
4:10:43,-0.98,0.06,-0.13,-4.9,45.64,-18.27,
4:10:43,-0.99,0.05,-0.14,4.48,41.16,-20.09,
4:10:43,-0.99,0.06,-0.12,12.18,39.13,-20.02,
4:10:43,-1,0.1,-0.09,11.55,43.33,-21.7,
4:10:43,-1.02,0.13,-0.09,-15.54,45.92,-21.7,
4:10:43,-1.05,0.15,-0.12,-10.15,42.07,-16.66,
4:10:43,-1.05,0.21,-0.11,-24.43,35.98,-11.41,
4:10:43,-1.03,0.21,-0.1,-32.55,31.64,-8.4,
4:10:43,-1.01,0.24,-0.1,-30.38,29.75,-9.45,
4:10:43,-0.99,0.24,-0.12,-18.34,26.53,-11.41,
4:10:43,-0.98,0.25,-0.16,-3.08,18.34,-11.06,
4:10:43,-0.97,0.28,-0.18,10.29,6.09,-8.75,
4:10:43,-0.97,0.3,-0.2,28.42,-7.7,-6.16,
4:10:43,-0.95,0.33,-0.21,46.83,-21.84,-5.11,
4:10:43,-0.92,0.37,-0.19,61.81,-30.38,-5.39,
4:10:43,-0.91,0.39,-0.17,73.5,-28.07,-7.42,
4:10:43,-0.91,0.4,-0.14,80.01,-21.7,-9.87,
4:10:43,-0.93,0.42,-0.09,79.66,-9.87,-9.52,
4:10:43,-0.98,0.43,-0.03,74.27,7.98,-8.19,
4:10:43,-1.01,0.42,0.04,65.66,31.5,-3.99,
4:10:43,-1.04,0.43,0.07,50.26,52.5,1.47,
4:10:43,-1.09,0.46,0.09,26.53,65.45,7.28,
4:10:43,-1.2,0.52,0.03,6.02,64.26,5.6,
4:10:43,-1.32,0.5,0.05,-8.12,45.64,13.79,
4:10:43,-1.49,0.49,0.24,-39.69,13.02,32.06,
4:10:43,-1.66,0.32,0.26,-51.24,-65.8,46.48,
4:10:43,-1.43,0.15,0.09,-6.65,-119.77,55.51,
4:10:43,-1.29,0.11,-0.06,29.47,-125.23,61.88,
4:10:43,-1.25,0.2,-0.18,28.56,-117.18,63.63,
4:10:43,-1.21,0.2,-0.28,0.07,-112.49,64.33,
4:10:43,-1.2,0.05,-0.33,-4.62,-107.38,71.05,
4:10:43,-1.15,0.12,-0.21,-20.16,-79.94,62.3,
4:10:43,-1.14,0.01,-0.26,-39.41,-35.63,49.91,
4:10:43,-1.21,-0.11,-0.2,-42.42,-17.5,45.5,
4:10:43,-1.24,-0.18,-0.13,-46.27,-23.1,56.14,
4:10:43,-1.23,-0.12,-0.05,-28.77,-42.84,55.72,
4:10:43,-1.18,0.02,0.04,-10.15,-59.08,46.55,
4:10:43,-1.13,0.03,0.04,-6.16,-70.35,43.47,
4:10:43,-1.06,0.02,-0.02,-5.53,-77.84,43.82,
4:10:43,-0.98,0,-0.07,-6.09,-76.79,44.45,
4:10:43,-0.96,-0.05,-0.13,14.07,-73.43,51.59,
4:10:43,-0.99,0.05,-0.11,25.97,-64.05,43.26,
4:10:43,-1.08,0.12,-0.05,18.97,-57.96,31.57,
4:10:43,-1.05,0.08,-0.06,16.38,-57.4,36.05,
4:10:43,-0.98,0.18,-0.02,30.45,-59.29,43.47,
4:10:43,-0.91,0.4,-0.02,29.75,-56.56,38.71,
4:10:43,-0.94,0.34,-0.08,8.68,-51.73,42.49,
4:10:43,-0.98,0.36,0,14.56,-50.68,52.57,
4:10:43,-0.96,0.22,-0.01,-15.47,-40.39,56.63,
4:10:43,-0.95,0.17,-0.05,-55.16,-27.44,52.78,
4:10:43,-0.9,0.09,-0.06,-85.82,-7.35,49.7,
4:10:43,-0.89,-0.02,-0.07,-102.2,7.56,51.1,
4:10:43,-0.89,-0.02,-0.03,-96.88,11.27,48.3,
4:10:43,-0.82,-0.1,-0.02,-88.9,13.3,46.69,
4:10:43,-0.82,-0.12,-0.01,-66.15,12.6,45.22,
4:10:43,-0.82,-0.1,0.01,-56.07,10.57,39.06,
4:10:43,-0.79,-0.06,0.02,-56.35,13.72,29.4,
4:10:43,-0.76,-0.09,0,-47.32,19.53,24.64,
4:10:43,-0.75,-0.06,0.02,-34.23,20.93,21.84,
4:10:43,-0.77,0.11,0.03,-25.34,17.78,18.62,
4:10:43,-0.77,0.01,0.02,-21.21,17.71,11.48,
4:10:43,-0.76,-0.01,0.02,-17.71,19.53,7.07,
4:10:43,-0.78,0,0.02,-14.07,20.23,4.06,
4:10:43,-0.77,0.01,0.03,-3.92,21.91,2.1,
4:10:43,-0.76,0.02,0.03,12.46,25.2,-0.07,
4:10:43,-0.79,0.11,0.02,23.8,24.57,-3.08,
4:10:43,-0.79,0.16,0.04,23.1,24.43,-5.46,
4:10:43,-0.82,0.18,0.07,17.92,25.2,-9.94,
4:10:43,-0.86,0.19,0.09,13.58,24.29,-14.77,
4:10:43,-0.9,0.25,0.11,10.57,22.96,-20.44,
4:10:43,-0.93,0.32,0.11,7.35,18.69,-24.5,
4:10:43,-0.92,0.38,0.13,-0.42,17.71,-21.21,
4:10:43,-0.92,0.52,0.18,-13.93,19.39,-19.18,
4:10:43,-0.92,0.59,0.24,-23.52,25.9,-17.08,
4:10:43,-0.98,0.59,0.24,-25.55,52.15,-11.69,
4:10:43,-1.03,0.63,0.24,-22.61,43.96,-5.81,
4:10:43,-1.01,0.71,0.26,-24.01,50.54,2.45,
4:10:43,-1.01,0.79,0.26,-31.57,51.17,3.43,
4:10:43,-1.02,0.74,0.24,-35.42,47.88,5.18,
4:10:43,-1.04,0.69,0.23,-35.7,42.49,10.64,
4:10:43,-1.02,0.63,0.27,-38.15,37.38,14.7,
4:10:43,-1,0.53,0.33,-35.28,35.91,17.29,
4:10:43,-1,0.46,0.33,-33.74,30.94,17.5,
4:10:43,-0.97,0.35,0.25,-29.61,28.49,15.89,
4:10:43,-1.03,0.22,0.18,-29.89,27.51,11.76,
4:10:43,-1.1,0.12,0.08,-20.86,22.54,9.38,
4:10:43,-1.11,0.04,-0.04,3.22,12.18,7.07,
4:10:43,-1.03,0.01,0,25.62,0.07,3.36,
4:10:43,-0.84,0.02,0.06,23.1,6.86,-7.56,
4:10:43,-0.81,-0.08,-0.07,9.87,15.54,-22.61,
4:10:43,-1.15,-0.14,-0.13,9.94,24.29,-53.48,
4:10:43,-1.64,-0.09,0.02,1.26,34.79,-77.56,
4:10:43,-1.96,0.28,0.19,-2.03,14.63,-70.28,
4:10:43,-1.84,0.47,-0.04,58.94,-19.88,-35.35,
4:10:43,-1.44,0.62,-0.35,102.55,-28.84,14.56,
4:10:43,-1.02,0.71,-0.42,90.3,-18.97,27.02,
4:10:43,-0.7,0.29,-0.25,76.58,-11.69,39.34,
4:10:43,-0.55,0.31,-0.17,33.04,-6.93,48.16,
4:10:43,-0.78,-0.01,-0.31,27.02,-28,35.42,
4:10:43,-0.9,-0.19,-0.36,56.84,-65.73,12.25,
4:10:43,-0.96,-0.23,-0.27,92.19,-78.75,-20.86,
4:10:43,-0.99,-0.18,-0.16,116.76,-69.93,-49.49,
4:10:43,-1.01,-0.03,-0.13,117.6,-55.02,-74.9,
4:10:43,-0.93,-0.1,-0.25,130.69,-48.51,-81.76,
4:10:43,-0.93,0.04,-0.39,166.88,-60.9,-84.42,
4:10:43,-0.89,0.18,-0.34,184.94,-68.32,-88.76,
4:10:43,-0.84,0.12,-0.18,165.97,-58.38,-66.92,
4:10:43,-0.84,0.06,-0.1,122.15,-37.45,-35.56,
4:10:43,-0.84,-0.03,-0.05,72.52,-11.06,-14.35,
4:10:43,-0.82,-0.1,-0.07,32.9,12.39,-19.39,
4:10:43,-0.82,-0.12,-0.11,8.19,21.91,-36.05,
4:10:43,-0.81,-0.2,-0.11,-1.75,25.76,-45.5,
4:10:43,-0.83,-0.21,-0.07,5.88,38.57,-42.63,
4:10:43,-0.87,-0.19,-0.05,13.79,57.12,-40.11,
4:10:43,-0.9,-0.18,-0.08,24.78,67.13,-34.79,
4:10:43,-0.94,-0.11,-0.12,35.14,66.64,-36.47,
4:10:43,-1.05,0.02,-0.21,29.33,46.9,-41.44,
4:10:43,-1.11,0.17,-0.23,12.46,14.84,-49.91,
4:10:43,-1.12,0.28,-0.22,-7.35,-15.12,-61.04,
4:10:43,-1.1,0.34,-0.14,-23.73,-33.81,-65.87,
4:10:43,-1.02,0.37,-0.08,-40.88,-36.05,-58.17,
